Group,Session,SID,PracDir,Difficulty,Trial,Staircase,MainDir,TargLoc,Resp,Correct,Type1RT,Conf,Type2RT
1,1,1,68,0.09,1,1,68,2,1,0,0.7135,2,1.6763
1,1,1,68,0.11,2,1,68,1,1,1,0.6973,2,0.8953
1,1,1,68,0.28,3,2,68,1,1,1,0.483,1,0.3847
1,1,1,68,0.09,4,1,68,2,2,1,1.3146,3,0.8322
1,1,1,68,0.26,5,2,68,2,2,1,0.7254,4,0.3091
1,1,1,68,0.24,6,2,68,1,1,1,0.3737,4,0.2573
1,1,1,68,0.22,7,2,68,2,2,1,0.8616,4,0.2158
1,1,1,68,0.2,8,2,68,2,2,1,0.923,2,0.2804
1,1,1,68,0.09,9,1,68,1,2,0,1.2064,1,0.7216
1,1,1,68,0.11,10,1,68,2,2,1,1.7559,2,1.0815
1,1,1,68,0.11,11,1,68,1,0,0,0,1,0.8721
1,1,1,68,0.13,12,1,68,2,2,1,1.8989,2,0.3788
1,1,1,68,0.13,13,1,68,2,1,0,1.4726,3,0.6089
1,1,1,68,0.15,14,1,68,1,1,1,0.8935,3,0.4773
1,1,1,68,0.15,15,1,68,2,1,0,1.1609,2,1.1146
1,1,1,68,0.17,16,1,68,2,1,0,0.9277,2,1.3061
1,1,1,68,0.19,17,1,68,2,2,1,1.0552,2,0.4151
1,1,1,68,0.19,18,1,68,2,0,0,0,1,0.9878
1,1,1,68,0.18,19,2,68,1,1,1,0.5913,2,0.2529
1,1,1,68,0.21,20,1,68,1,1,1,0.455,3,0.1966
1,1,1,68,0.21,21,1,68,2,1,0,1.8071,2,0.2932
1,1,1,68,0.23,22,1,68,2,1,0,1.6444,2,0.8674
1,1,1,68,0.16,23,2,68,1,2,0,0.93,1,0.9697
1,1,1,68,0.18,24,2,68,2,1,0,1.3344,1,0.1314
1,1,1,68,0.2,25,2,68,2,2,1,1.4043,2,0.358
1,1,1,68,0.2,26,2,68,2,0,0,0,3,1.3748
1,1,1,68,0.22,27,2,68,1,1,1,1.3865,1,0.2939
1,1,1,68,0.25,28,1,68,1,2,0,0.8238,2,0.4398
1,1,1,68,0.27,29,1,68,1,0,0,0,1,1.1726
1,1,1,68,0.29,30,1,68,1,0,0,0,3,1.0677
1,1,1,68,0.31,31,1,68,2,2,1,0.7927,2,0.6656
1,1,1,68,0.31,32,1,68,2,2,1,0.9925,2,0.8157
1,1,1,68,0.29,33,1,68,2,2,1,1.7297,3,0.3342
1,1,1,68,0.22,34,2,68,1,1,1,1.0653,3,1.0318
1,1,1,68,0.2,35,2,68,1,1,1,1.9024,2,0.6864
1,1,1,68,0.2,36,2,68,1,1,1,1.1195,2,0.6047
1,1,1,68,0.29,37,1,68,1,1,1,0.3173,4,0.7394
1,1,1,68,0.27,38,1,68,1,1,1,0.4615,4,0.1855
1,1,1,68,0.27,39,1,68,1,1,1,0.373,4,0.21
1,1,1,68,0.18,40,2,68,2,2,1,1.2788,2,0.6284
1,1,1,68,0.18,41,2,68,1,1,1,0.888,4,0.763
1,1,1,68,0.16,42,2,68,2,2,1,1.2806,4,0.1895
1,1,1,68,0.16,43,2,68,2,1,0,1.0481,2,0.2245
1,1,1,68,0.18,44,2,68,1,1,1,0.4557,4,0.5637
1,1,1,68,0.25,45,1,68,1,1,1,0.3292,4,0.3566
1,1,1,68,0.25,46,1,68,2,2,1,1.3274,2,0.5154
1,1,1,68,0.23,47,1,68,1,1,1,0.4564,3,0.2602
1,1,1,68,0.18,48,2,68,1,2,0,0.7646,3,0.5741
1,1,1,68,0.2,49,2,68,1,2,0,0.6816,3,0.4452
1,1,1,68,0.22,50,2,68,2,1,0,1.182,3,0.34
1,1,1,68,0.24,51,2,68,2,2,1,1.2173,4,0.2847
1,1,1,68,0.24,52,2,68,2,2,1,0.7739,4,0.2153
1,1,1,68,0.23,53,1,68,1,1,1,1.0877,1,0.5258
1,1,1,68,0.22,54,2,68,1,1,1,0.5925,3,0.2615
1,1,1,68,0.22,55,2,68,2,2,1,0.9686,4,0.2071
1,1,1,68,0.21,56,1,68,2,2,1,0.8276,4,0.1562
1,1,1,68,0.21,57,1,68,1,1,1,0.7503,2,0.2617
1,1,1,68,0.2,58,2,68,2,2,1,0.9836,3,0.151
1,1,1,68,0.2,59,2,68,1,1,1,0.2999,4,0.218
1,1,1,68,0.21,60,1,68,1,1,1,0.2723,2,0.2223
1,1,1,68,0.21,61,1,68,1,1,1,0.5425,4,0.2103
1,1,1,68,0.21,62,1,68,1,1,1,0.3539,3,0.2296
1,1,1,68,0.18,63,2,68,2,2,1,1.3887,1,0.1189
1,1,1,68,0.18,64,2,68,1,1,1,0.9387,3,0.0915
1,1,1,68,0.18,65,2,68,1,1,1,1.0342,1,0.0975
1,1,1,68,0.18,66,2,68,1,1,1,0.5828,3,0.1459
1,1,1,68,0.18,67,2,68,1,1,1,0.5397,3,0.1345
1,1,1,68,0.18,68,2,68,2,2,1,0.8259,2,0.251
1,1,1,68,0.18,69,2,68,2,2,1,0.6081,4,0.1946
1,1,1,68,0.18,70,2,68,1,2,0,1.4171,2,0.1169
1,1,1,68,0.21,71,1,68,2,2,1,0.5256,3,0.1043
1,1,1,68,0.21,72,1,68,1,1,1,1.3897,1,0.119
1,1,1,68,0.21,73,1,68,1,1,1,0.4755,3,0.1176
1,1,1,68,0.21,74,1,68,1,1,1,0.3988,3,0.1777
1,1,1,68,0.21,75,1,68,2,2,1,0.4816,4,0.2056
1,1,1,68,0.18,76,2,68,1,1,1,0.5837,3,0.1142
1,1,1,68,0.18,77,2,68,2,2,1,0.7743,3,0.1942
1,1,1,68,0.21,78,1,68,2,2,1,0.5618,3,0.1646
1,1,1,68,0.18,79,2,68,1,2,0,1.1176,2,0.3066
1,1,1,68,0.21,80,1,68,2,2,1,0.6547,3,0.1601
1,1,1,68,0.18,81,2,68,1,1,1,0.227,4,0.9024
1,1,1,68,0.18,82,2,68,1,1,1,0.3509,4,0.1148
1,1,1,68,0.18,83,2,68,2,2,1,0.3266,4,0.1233
1,1,1,68,0.18,84,2,68,1,1,1,0.7653,3,0.1837
1,1,1,68,0.21,85,1,68,2,2,1,0.6736,3,0.5799
1,1,1,68,0.21,86,1,68,1,1,1,0.2974,3,0.1918
1,1,1,68,0.21,87,1,68,2,2,1,0.4323,4,0.3946
1,1,1,68,0.18,88,2,68,1,1,1,0.601,3,0.2367
1,1,1,68,0.18,89,2,68,2,2,1,0.546,4,0.1893
1,1,1,68,0.21,90,1,68,1,2,0,0.4944,4,0.113
1,1,1,68,0.18,91,2,68,1,2,0,0.6966,4,0.1831
1,1,1,68,0.21,92,1,68,1,2,0,0.4858,3,0.5144
1,1,1,68,0.18,93,2,68,1,2,0,0.847,2,0.2656
1,1,1,68,0.18,94,2,68,2,2,1,0.6436,3,0.238
1,1,1,68,0.21,95,1,68,2,2,1,0.5072,3,0.2313
1,1,1,68,0.21,96,1,68,1,1,1,1.0958,1,0.0948
1,1,1,68,0.21,97,1,68,1,1,1,0.321,2,0.2702
1,1,1,68,0.21,98,1,68,2,2,1,0.5401,3,0.1756
1,1,1,68,0.21,99,1,68,2,2,1,0.5926,3,0.1244
1,1,1,68,0.18,100,2,68,2,2,1,0.757,2,0.2543
1,1,1,68,0.18,101,2,68,2,2,1,0.4459,3,0.2033
1,1,1,68,0.18,102,2,68,2,2,1,0.4762,3,0.1779
1,1,1,68,0.18,103,2,68,1,1,1,0.8607,1,0.1341
1,1,1,68,0.18,104,2,68,2,2,1,0.3974,3,0.1628
1,1,1,68,0.21,105,1,68,1,1,1,0.5843,1,0.2129
1,1,1,68,0.21,106,1,68,1,1,1,0.3052,2,0.168
1,1,1,68,0.21,107,1,68,1,1,1,0.5836,2,0.116
1,1,1,68,0.18,108,2,68,2,2,1,0.446,3,0.0817
1,1,1,68,0.21,109,1,68,2,2,1,0.5375,3,0.1171
1,1,1,68,0.18,110,2,68,2,2,1,0.4494,3,0.1259
1,1,1,68,0.21,111,1,68,2,2,1,0.6191,3,1.3261
1,1,1,68,0.21,112,1,68,2,2,1,0.6871,3,0.2559
1,1,1,68,0.21,113,1,68,2,2,1,0.3956,3,0.2744
1,1,1,68,0.21,114,1,68,2,2,1,0.6516,2,0.3092
1,1,1,68,0.21,115,1,68,1,1,1,0.4627,1,0.2023
1,1,1,68,0.18,116,2,68,1,1,1,0.5489,3,0.2085
1,1,1,68,0.18,117,2,68,1,2,0,0.5759,3,0.2362
1,1,1,68,0.18,118,2,68,2,2,1,0.6016,4,0.1959
1,1,1,68,0.18,119,2,68,2,1,0,1.5812,1,0.0791
1,1,1,68,0.18,120,2,68,2,2,1,1.5966,3,0.1586
1,2,1,68,0.28,1,2,68,1,1,1,0.4176,3,1.3117
1,2,1,68,0.26,2,2,68,1,1,1,0.1955,4,0.2156
1,2,1,68,0.24,3,2,68,1,1,1,0.4848,4,0.3228
1,2,1,68,0.09,4,1,68,1,1,1,0.5891,2,0.1818
1,2,1,68,0.22,5,2,68,1,1,1,0.3022,3,0.1714
1,2,1,68,0.07,6,1,68,1,1,1,1.4277,2,0.2416
1,2,1,68,0.05,7,1,68,1,1,1,0.8425,3,0.1575
1,2,1,68,0.03,8,1,68,1,1,1,0.9095,1,0.1633
1,2,1,68,0.2,9,2,68,1,1,1,0.2109,3,0.212
1,2,1,68,0.18,10,2,68,2,1,0,0.3944,4,0.1581
1,2,1,68,0.2,11,2,68,1,1,1,0.1914,3,0.1629
1,2,1,68,0.01,12,1,68,1,1,1,0.5693,2,0.0978
1,2,1,68,0,13,1,68,2,1,0,0.5109,2,0.188
1,2,1,68,0.2,14,2,68,2,1,0,0.7555,3,0.1309
1,2,1,68,0.22,15,2,68,1,2,0,0.4251,2,0.2499
1,2,1,68,0.24,16,2,68,2,2,1,0.7998,1,0.2407
1,2,1,68,0.02,17,1,68,1,1,1,0.9687,3,0.0488
1,2,1,68,0.24,18,2,68,2,2,1,0.8007,3,0.1739
1,2,1,68,0.22,19,2,68,2,2,1,0.9951,1,0.6282
1,2,1,68,0.22,20,2,68,1,1,1,0.3561,3,0.2149
1,2,1,68,0.02,21,1,68,2,1,0,1.0073,3,0.2317
1,2,1,68,0.2,22,2,68,1,2,0,0.4086,1,0.6108
1,2,1,68,0.04,23,1,68,1,1,1,0.7517,3,0.1307
1,2,1,68,0.22,24,2,68,2,2,1,0.6137,3,0.1638
1,2,1,68,0.22,25,2,68,2,2,1,1.671,3,0.1971
1,2,1,68,0.04,26,1,68,1,1,1,1.1822,2,0.1674
1,2,1,68,0.02,27,1,68,1,1,1,0.7122,3,0.2393
1,2,1,68,0.02,28,1,68,2,2,1,0.5567,3,0.279
1,2,1,68,0,29,1,68,2,2,1,0.574,4,0.1927
1,2,1,68,0.2,30,2,68,2,1,0,0.825,1,0.2255
1,2,1,68,0.22,31,2,68,1,2,0,0.489,3,0.1532
1,2,1,68,0.24,32,2,68,2,2,1,0.9283,1,0.2941
1,2,1,68,0.24,33,2,68,1,1,1,0.3937,3,0.1507
1,2,1,68,0,34,1,68,2,1,0,0.638,3,0.1817
1,2,1,68,0.02,35,1,68,2,2,1,0.5428,3,0.4234
1,2,1,68,0.02,36,1,68,2,2,1,1.1778,1,0.237
1,2,1,68,0.22,37,2,68,2,2,1,0.803,4,0.4066
1,2,1,68,0,38,1,68,1,2,0,0.4994,3,0.2062
1,2,1,68,0.02,39,1,68,2,2,1,0.808,3,0.1687
1,2,1,68,0.22,40,2,68,1,2,0,0.321,4,0.1734
1,2,1,68,0.24,41,2,68,1,1,1,0.8817,3,0.4746
1,2,1,68,0.24,42,2,68,2,2,1,0.8703,3,0.451
1,2,1,68,0.02,43,1,68,1,2,0,0.6105,4,0.2424
1,2,1,68,0.04,44,1,68,2,2,1,1.0573,3,0.2126
1,2,1,68,0.22,45,2,68,2,2,1,0.5911,3,0.313
1,2,1,68,0.04,46,1,68,1,2,0,0.8366,3,0.3465
1,2,1,68,0.22,47,2,68,2,2,1,0.5835,4,0.2664
1,2,1,68,0.2,48,2,68,2,2,1,0.5277,3,0.1926
1,2,1,68,0.2,49,2,68,2,2,1,0.4596,4,0.2059
1,2,1,68,0.06,50,1,68,1,2,0,0.6579,3,0.1929
1,2,1,68,0.08,51,1,68,2,1,0,1.2903,1,0.203
1,2,1,68,0.18,52,2,68,1,2,0,0.3754,3,0.1911
1,2,1,68,0.1,53,1,68,2,2,1,1.226,4,0.2573
1,2,1,68,0.1,54,1,68,2,2,1,0.5917,3,0.1567
1,2,1,68,0.2,55,2,68,1,2,0,0.356,3,0.3436
1,2,1,68,0.08,56,1,68,2,2,1,1.259,3,1.0846
1,2,1,68,0.2,57,2,68,1,1,1,0.27,3,0.4268
1,2,1,68,0.2,58,2,68,2,2,1,1.2686,3,0.3768
1,2,1,68,0.08,59,1,68,1,1,1,1.7314,3,0.7019
1,2,1,68,0.06,60,1,68,2,2,1,1.3085,3,0.4872
1,2,1,68,0.06,61,1,68,1,2,0,1.3174,4,0.1995
1,2,1,68,0.08,62,1,68,1,2,0,0.9786,2,0.2311
1,2,1,68,0.08,63,1,68,2,1,0,1.2916,2,0.4003
1,2,1,68,0.08,64,1,68,2,2,1,1.2815,3,0.2558
1,2,1,68,0.08,65,1,68,2,1,0,1.7099,1,0.3286
1,2,1,68,0.08,66,1,68,1,1,1,1.5893,1,0.1987
1,2,1,68,0.08,67,1,68,1,2,0,0.8238,3,0.1841
1,2,1,68,0.08,68,1,68,1,2,0,0.8253,3,0.28
1,2,1,68,0.2,69,2,68,2,2,1,0.6389,3,0.2552
1,2,1,68,0.2,70,2,68,2,1,0,1.9724,1,0.278
1,2,1,68,0.08,71,1,68,2,2,1,1.0452,2,0.3131
1,2,1,68,0.2,72,2,68,1,1,1,1.3941,1,0.5209
1,2,1,68,0.08,73,1,68,1,2,0,0.6074,2,0.3924
1,2,1,68,0.08,74,1,68,2,2,1,1.5684,1,0.2507
1,2,1,68,0.08,75,1,68,1,2,0,0.9536,1,0.3795
1,2,1,68,0.08,76,1,68,1,2,0,0.7184,1,0.2162
1,2,1,68,0.2,77,2,68,1,1,1,0.9784,1,0.2804
1,2,1,68,0.2,78,2,68,1,1,1,0.5541,3,1.1819
1,2,1,68,0.08,79,1,68,2,2,1,0.8707,2,1.1601
1,2,1,68,0.08,80,1,68,1,1,1,1.0238,2,0.5979
1,2,1,68,0.2,81,2,68,1,1,1,0.8423,3,0.4503
1,2,1,68,0.08,82,1,68,2,2,1,1.5676,1,0.3738
1,2,1,68,0.08,83,1,68,1,1,1,1.523,3,0.2878
1,2,1,68,0.2,84,2,68,2,2,1,0.8761,3,0.7909
1,2,1,68,0.08,85,1,68,2,2,1,1.4438,3,0.3196
1,2,1,68,0.08,86,1,68,2,2,1,1.0725,3,0.2891
1,2,1,68,0.2,87,2,68,1,1,1,0.5474,4,0.5413
1,2,1,68,0.2,88,2,68,1,1,1,0.8092,4,0.2181
1,2,1,68,0.2,89,2,68,1,1,1,0.4251,2,0.4667
1,2,1,68,0.2,90,2,68,1,1,1,0.9427,3,0.2235
1,2,1,68,0.08,91,1,68,1,1,1,0.682,3,0.2363
1,2,1,68,0.08,92,1,68,2,1,0,0.7762,3,0.2724
1,2,1,68,0.08,93,1,68,2,2,1,0.8236,2,0.328
1,2,1,68,0.08,94,1,68,2,1,0,0.4827,2,0.3587
1,2,1,68,0.2,95,2,68,2,2,1,1.1319,4,0.1753
1,2,1,68,0.2,96,2,68,1,2,0,0.4175,4,0.1825
1,2,1,68,0.2,97,2,68,2,1,0,0.7867,1,0.8498
1,2,1,68,0.2,98,2,68,2,2,1,1.2499,3,0.4174
1,2,1,68,0.08,99,1,68,1,1,1,1.2889,1,0.2459
1,2,1,68,0.2,100,2,68,2,1,0,1.7572,1,0.3224
1,2,1,68,0.08,101,1,68,1,1,1,0.4524,2,0.6891
1,2,1,68,0.2,102,2,68,2,2,1,0.8392,2,0.7113
1,2,1,68,0.08,103,1,68,1,1,1,1.4201,2,2.0855
1,2,1,68,0.2,104,2,68,2,2,1,1.6568,1,0.7758
1,2,1,68,0.2,105,2,68,2,2,1,1.6635,1,0.3817
1,2,1,68,0.2,106,2,68,1,2,0,1.3909,3,0.2729
1,2,1,68,0.08,107,1,68,2,1,0,1.3576,1,0.2408
1,2,1,68,0.2,108,2,68,1,1,1,1.7278,1,0.1924
1,2,1,68,0.2,109,2,68,1,2,0,1.0219,1,0.4215
1,2,1,68,0.2,110,2,68,2,2,1,1.0294,2,0.2592
1,2,1,68,0.08,111,1,68,2,1,0,1.6431,1,1.2284
1,2,1,68,0.08,112,1,68,2,2,1,0.73,1,0.4444
1,2,1,68,0.2,113,2,68,1,2,0,1.0931,1,0.3455
1,2,1,68,0.08,114,1,68,1,2,0,1.2931,2,0.6215
1,2,1,68,0.08,115,1,68,1,1,1,1.2587,1,0.12
1,2,1,68,0.08,116,1,68,2,1,0,1.2694,1,0.1856
1,2,1,68,0.2,117,2,68,2,1,0,0.7572,1,0.1755
1,2,1,68,0.2,118,2,68,2,2,1,1.7056,2,0.2581
1,2,1,68,0.2,119,2,68,1,1,1,1.2601,2,0.7142
1,2,1,68,0.2,120,2,68,2,1,0,0.958,2,0.1751
1,1,4,248,0.2,1,2,248,1,1,1,0.7415,4,0.2338
1,1,4,248,0.11,2,1,248,1,2,0,0.9106,4,0.4685
1,1,4,248,0.18,3,2,248,1,2,0,1.3569,4,0.4472
1,1,4,248,0.13,4,1,248,1,1,1,0.7362,3,0.481
1,1,4,248,0.11,5,1,248,1,1,1,1.2101,3,0.9561
1,1,4,248,0.11,6,1,248,2,2,1,0.8212,3,0.6498
1,1,4,248,0.2,7,2,248,1,2,0,1.4759,2,1.0442
1,1,4,248,0.22,8,2,248,2,2,1,0.8184,2,1.1716
1,1,4,248,0.09,9,1,248,1,1,1,0.874,3,0.7542
1,1,4,248,0.22,10,2,248,2,2,1,0.4903,4,0.3591
1,1,4,248,0.2,11,2,248,2,2,1,0.6656,4,0.4203
1,1,4,248,0.09,12,1,248,1,2,0,1.2782,3,0.4336
1,1,4,248,0.11,13,1,248,2,1,0,1.1586,3,0.7024
1,1,4,248,0.13,14,1,248,1,1,1,0.8724,3,0.8898
1,1,4,248,0.13,15,1,248,1,1,1,0.9998,3,1.0739
1,1,4,248,0.2,16,2,248,2,2,1,0.8197,3,0.5772
1,1,4,248,0.18,17,2,248,2,2,1,0.9021,3,0.6322
1,1,4,248,0.11,18,1,248,1,2,0,0.9288,3,0.7668
1,1,4,248,0.13,19,1,248,1,1,1,1.2694,2,0.7622
1,1,4,248,0.13,20,1,248,1,1,1,0.9866,3,1.1792
1,1,4,248,0.18,21,2,248,2,2,1,1.0513,3,0.4708
1,1,4,248,0.16,22,2,248,2,2,1,0.8066,3,0.7078
1,1,4,248,0.11,23,1,248,1,0,0,0,3,0.38
1,1,4,248,0.13,24,1,248,2,2,1,1.0054,3,0.672
1,1,4,248,0.16,25,2,248,1,1,1,1.0728,3,1.0377
1,1,4,248,0.13,26,1,248,1,1,1,1.7959,3,0.6653
1,1,4,248,0.14,27,2,248,1,1,1,0.9835,2,0.6395
1,1,4,248,0.14,28,2,248,2,0,0,0,3,0.7937
1,1,4,248,0.11,29,1,248,2,1,0,1.3881,2,0.7089
1,1,4,248,0.13,30,1,248,1,1,1,1.2604,2,0.5188
1,1,4,248,0.13,31,1,248,1,1,1,1.8123,2,0.5768
1,1,4,248,0.16,32,2,248,1,1,1,1.4451,3,0.3855
1,1,4,248,0.11,33,1,248,1,1,1,1.0066,3,0.2645
1,1,4,248,0.11,34,1,248,2,1,0,1.2386,3,0.315
1,1,4,248,0.13,35,1,248,1,1,1,1.3836,3,0.2965
1,1,4,248,0.13,36,1,248,1,1,1,1.1457,3,0.3001
1,1,4,248,0.11,37,1,248,1,1,1,1.5388,3,0.3915
1,1,4,248,0.11,38,1,248,1,0,0,0,2,0.9975
1,1,4,248,0.13,39,1,248,2,2,1,1.3069,3,0.2744
1,1,4,248,0.13,40,1,248,2,0,0,0,1,1.094
1,1,4,248,0.15,41,1,248,1,1,1,1.2384,3,0.5552
1,1,4,248,0.16,42,2,248,2,2,1,0.7299,3,0.5112
1,1,4,248,0.15,43,1,248,2,2,1,1.636,3,0.3479
1,1,4,248,0.14,44,2,248,2,2,1,0.6195,3,0.3851
1,1,4,248,0.13,45,1,248,2,0,0,0,1,1.275
1,1,4,248,0.15,46,1,248,2,1,0,1.4477,1,0.7575
1,1,4,248,0.14,47,2,248,2,2,1,0.6223,3,0.292
1,1,4,248,0.15,48,1,248,2,2,1,1.7577,3,0.9199
1,1,4,248,0.12,49,2,248,1,2,0,1.4501,3,0.7749
1,1,4,248,0.14,50,2,248,2,2,1,0.9094,3,0.4386
1,1,4,248,0.14,51,2,248,2,2,1,0.7236,3,0.4978
1,1,4,248,0.15,52,1,248,2,2,1,0.9508,3,0.3394
1,1,4,248,0.12,53,2,248,1,2,0,1.9147,2,1.3979
1,1,4,248,0.14,54,2,248,1,1,1,1.7074,3,0.5202
1,1,4,248,0.15,55,1,248,2,2,1,1.9864,2,0.6108
1,1,4,248,0.14,56,2,248,1,2,0,1.2137,2,0.3878
1,1,4,248,0.16,57,2,248,1,0,0,0,1,1.4705
1,1,4,248,0.15,58,1,248,2,2,1,0.7811,2,0.4698
1,1,4,248,0.15,59,1,248,2,2,1,0.9731,3,0.6495
1,1,4,248,0.18,60,2,248,2,2,1,0.9744,3,0.4604
1,1,4,248,0.15,61,1,248,2,2,1,1.0814,3,0.545
1,1,4,248,0.18,62,2,248,2,2,1,0.8436,3,0.6558
1,1,4,248,0.15,63,1,248,2,0,0,0,2,0.7263
1,1,4,248,0.16,64,2,248,1,0,0,0,1,2.8995
1,1,4,248,0.15,65,1,248,1,2,0,0.7266,1,0.3274
1,1,4,248,0.18,66,2,248,1,1,1,1.7199,2,0.5447
1,1,4,248,0.15,67,1,248,2,1,0,1.5371,1,1.6462
1,1,4,248,0.15,68,1,248,2,2,1,1.4442,2,0.4296
1,1,4,248,0.18,69,2,248,2,2,1,1.6937,1,1.0796
1,1,4,248,0.15,70,1,248,1,2,0,0.795,1,0.2902
1,1,4,248,0.15,71,1,248,1,1,1,1.7079,2,0.2794
1,1,4,248,0.15,72,1,248,2,0,0,0,2,0.6233
1,1,4,248,0.15,73,1,248,2,1,0,1.7498,2,0.6447
1,1,4,248,0.16,74,2,248,1,2,0,0.8628,3,0.5789
1,1,4,248,0.15,75,1,248,2,0,0,0,1,0.9409
1,1,4,248,0.15,76,1,248,2,2,1,1.3593,3,0.3203
1,1,4,248,0.16,77,2,248,2,2,1,0.8536,2,0.6277
1,1,4,248,0.15,78,1,248,1,2,0,0.7955,2,0.4306
1,1,4,248,0.16,79,2,248,1,1,1,1.3198,1,0.6686
1,1,4,248,0.15,80,1,248,2,2,1,0.7844,2,0.1218
1,1,4,248,0.15,81,1,248,1,1,1,1.1975,2,0.6069
1,1,4,248,0.16,82,2,248,2,1,0,1.641,2,0.4134
1,1,4,248,0.16,83,2,248,2,0,0,0,2,1.1845
1,1,4,248,0.16,84,2,248,1,2,0,0.7571,3,0.3412
1,1,4,248,0.16,85,2,248,1,0,0,0,2,1.38
1,1,4,248,0.16,86,2,248,2,2,1,0.83,2,0.4837
1,1,4,248,0.15,87,1,248,1,0,0,0,2,0.9148
1,1,4,248,0.16,88,2,248,2,1,0,1.8746,1,0.3655
1,1,4,248,0.15,89,1,248,1,2,0,1.0458,1,0.4815
1,1,4,248,0.16,90,2,248,2,2,1,1.1822,3,0.284
1,1,4,248,0.16,91,2,248,1,1,1,1.4618,1,0.5361
1,1,4,248,0.16,92,2,248,2,2,1,1.5729,1,0.5733
1,1,4,248,0.16,93,2,248,2,2,1,0.7699,3,0.2448
1,1,4,248,0.16,94,2,248,1,2,0,0.695,3,0.2775
1,1,4,248,0.16,95,2,248,1,1,1,1.8957,1,0.2815
1,1,4,248,0.16,96,2,248,1,2,0,0.8315,2,0.3013
1,1,4,248,0.16,97,2,248,2,2,1,0.613,2,0.3353
1,1,4,248,0.15,98,1,248,2,2,1,0.5498,3,0.2712
1,1,4,248,0.15,99,1,248,1,2,0,0.6829,3,0.2998
1,1,4,248,0.15,100,1,248,1,0,0,0,1,1.1031
1,1,4,248,0.16,101,2,248,2,2,1,0.9321,3,0.5027
1,1,4,248,0.16,102,2,248,2,2,1,1.0278,2,0.5506
1,1,4,248,0.15,103,1,248,2,2,1,1.2067,2,0.4827
1,1,4,248,0.16,104,2,248,2,2,1,1.1618,2,0.8155
1,1,4,248,0.16,105,2,248,1,2,0,0.5928,2,0.562
1,1,4,248,0.15,106,1,248,2,0,0,0,1,0.3336
1,1,4,248,0.16,107,2,248,1,1,1,1.4494,2,0.7275
1,1,4,248,0.16,108,2,248,1,0,0,0,1,1.9133
1,1,4,248,0.16,109,2,248,2,2,1,0.6394,1,1.0901
1,1,4,248,0.16,110,2,248,1,1,1,1.4918,3,0.3363
1,1,4,248,0.16,111,2,248,1,1,1,1.728,2,1.9212
1,1,4,248,0.15,112,1,248,2,2,1,1.1222,2,2.5771
1,1,4,248,0.16,113,2,248,1,1,1,0.5774,1,0.3754
1,1,4,248,0.16,114,2,248,1,1,1,1.2865,2,2.1982
1,1,4,248,0.15,115,1,248,2,0,0,0,3,1.1417
1,1,4,248,0.16,116,2,248,1,1,1,0.6322,3,0.4885
1,1,4,248,0.16,117,2,248,2,1,0,1.1853,3,0.8301
1,1,4,248,0.16,118,2,248,1,1,1,1.5852,2,0.3686
1,1,4,248,0.15,119,1,248,2,2,1,0.5047,3,0.5843
1,1,4,248,0.15,120,1,248,1,0,0,0,2,0.8447
1,2,4,248,0.2,1,2,248,2,2,1,0.6783,4,0.5257
1,2,4,248,0.11,2,1,248,2,2,1,0.5356,4,0.2469
1,2,4,248,0.09,3,1,248,2,2,1,0.4708,4,0.2772
1,2,4,248,0.18,4,2,248,2,2,1,0.5233,4,0.2854
1,2,4,248,0.16,5,2,248,1,2,0,1.0225,3,0.5356
1,2,4,248,0.07,6,1,248,1,1,1,0.9997,4,0.4476
1,2,4,248,0.18,7,2,248,1,1,1,0.9061,4,0.6792
1,2,4,248,0.18,8,2,248,1,1,1,0.9729,3,0.6521
1,2,4,248,0.16,9,2,248,2,2,1,0.7811,3,1.4587
1,2,4,248,0.05,10,1,248,2,2,1,0.7971,2,0.7497
1,2,4,248,0.16,11,2,248,1,1,1,0.6889,3,0.3458
1,2,4,248,0.14,12,2,248,2,1,0,0.9255,3,0.4844
1,2,4,248,0.03,13,1,248,1,1,1,1.0821,2,0.3935
1,2,4,248,0.16,14,2,248,1,1,1,1.3509,2,0.9436
1,2,4,248,0.01,15,1,248,2,1,0,1.4666,2,0.2561
1,2,4,248,0.03,16,1,248,1,1,1,1.0384,2,0.2882
1,2,4,248,0.03,17,1,248,2,0,0,0,2,0.6814
1,2,4,248,0.16,18,2,248,2,2,1,1.8709,1,0.5493
1,2,4,248,0.14,19,2,248,1,1,1,1.1163,2,0.3414
1,2,4,248,0.05,20,1,248,2,1,0,1.295,2,0.3032
1,2,4,248,0.14,21,2,248,2,1,0,0.9934,2,0.3654
1,2,4,248,0.16,22,2,248,1,1,1,1.2456,2,0.3398
1,2,4,248,0.16,23,2,248,1,1,1,1.5353,1,1.0624
1,2,4,248,0.07,24,1,248,1,1,1,1.2524,2,0.3443
1,2,4,248,0.07,25,1,248,1,1,1,1.849,2,0.2571
1,2,4,248,0.14,26,2,248,1,1,1,1.1047,1,0.2529
1,2,4,248,0.05,27,1,248,2,1,0,1.6969,1,0.3888
1,2,4,248,0.07,28,1,248,1,2,0,1.1413,2,0.4551
1,2,4,248,0.09,29,1,248,1,1,1,1.2546,1,0.517
1,2,4,248,0.14,30,2,248,1,1,1,0.8382,3,0.2749
1,2,4,248,0.09,31,1,248,2,2,1,0.9012,2,0.2942
1,2,4,248,0.12,32,2,248,1,1,1,1.1346,3,0.5663
1,2,4,248,0.12,33,2,248,2,1,0,1.0238,2,0.2984
1,2,4,248,0.07,34,1,248,2,2,1,1.2028,2,0.305
1,2,4,248,0.07,35,1,248,1,1,1,1.2612,2,0.3187
1,2,4,248,0.14,36,2,248,1,1,1,1.5041,2,0.4202
1,2,4,248,0.14,37,2,248,1,1,1,1.7709,2,0.5767
1,2,4,248,0.12,38,2,248,2,2,1,0.7471,3,0.366
1,2,4,248,0.12,39,2,248,1,1,1,1.591,2,0.314
1,2,4,248,0.05,40,1,248,2,1,0,1.913,1,0.3744
1,2,4,248,0.07,41,1,248,2,1,0,1.7615,2,0.9115
1,2,4,248,0.09,42,1,248,2,0,0,0,1,0.7942
1,2,4,248,0.1,43,2,248,2,0,0,0,1,0.7605
1,2,4,248,0.11,44,1,248,1,2,0,0.8154,2,0.303
1,2,4,248,0.13,45,1,248,1,2,0,0.824,2,0.2811
1,2,4,248,0.12,46,2,248,1,2,0,1.8202,2,0.2973
1,2,4,248,0.14,47,2,248,2,2,1,1.0505,2,0.3572
1,2,4,248,0.15,48,1,248,1,1,1,1.1158,2,0.2801
1,2,4,248,0.14,49,2,248,1,1,1,1.22,1,0.2956
1,2,4,248,0.15,50,1,248,2,2,1,1.0068,1,0.3626
1,2,4,248,0.13,51,1,248,1,2,0,1.0774,2,0.4636
1,2,4,248,0.15,52,1,248,1,1,1,1.0414,2,0.3666
1,2,4,248,0.15,53,1,248,2,2,1,1.658,1,0.6102
1,2,4,248,0.12,54,2,248,2,2,1,1.166,1,0.5512
1,2,4,248,0.12,55,2,248,1,2,0,1.0308,2,0.787
1,2,4,248,0.14,56,2,248,1,2,0,0.8367,2,0.7721
1,2,4,248,0.13,57,1,248,1,2,0,0.9576,2,0.4832
1,2,4,248,0.16,58,2,248,1,2,0,1.1723,2,0.8852
1,2,4,248,0.16,59,2,248,2,2,1,0.9259,3,0.4559
1,2,4,248,0.15,60,1,248,2,2,1,0.7059,3,0.3332
1,2,4,248,0.16,61,2,248,2,2,1,1.0954,2,0.5514
1,2,4,248,0.16,62,2,248,2,2,1,0.7325,3,0.3842
1,2,4,248,0.15,63,1,248,2,2,1,0.5182,3,0.4081
1,2,4,248,0.16,64,2,248,1,2,0,1.3771,3,0.6713
1,2,4,248,0.15,65,1,248,1,1,1,1.48,2,0.8365
1,2,4,248,0.16,66,2,248,2,2,1,1.4979,2,0.3816
1,2,4,248,0.15,67,1,248,1,1,1,1.2712,2,0.3275
1,2,4,248,0.16,68,2,248,2,1,0,1.8645,2,0.4247
1,2,4,248,0.15,69,1,248,2,1,0,1.1196,2,0.9726
1,2,4,248,0.15,70,1,248,1,1,1,1.5865,2,0.711
1,2,4,248,0.15,71,1,248,1,2,0,0.6718,3,0.385
1,2,4,248,0.15,72,1,248,2,2,1,0.5213,3,0.5085
1,2,4,248,0.15,73,1,248,1,2,0,0.5029,2,0.5573
1,2,4,248,0.16,74,2,248,2,1,0,1.3416,1,0.4304
1,2,4,248,0.16,75,2,248,1,2,0,0.6153,3,0.4007
1,2,4,248,0.16,76,2,248,1,1,1,1.2092,2,0.462
1,2,4,248,0.15,77,1,248,2,2,1,0.9153,2,1.1428
1,2,4,248,0.16,78,2,248,2,2,1,0.4397,3,0.3155
1,2,4,248,0.16,79,2,248,1,1,1,1.8223,1,1.3332
1,2,4,248,0.15,80,1,248,2,2,1,0.4669,3,0.3315
1,2,4,248,0.15,81,1,248,1,1,1,0.7787,3,0.3722
1,2,4,248,0.15,82,1,248,1,1,1,1.1341,3,0.4723
1,2,4,248,0.15,83,1,248,1,2,0,1.528,1,1.192
1,2,4,248,0.16,84,2,248,2,2,1,0.4393,4,0.2854
1,2,4,248,0.15,85,1,248,1,2,0,1.1193,2,0.3759
1,2,4,248,0.16,86,2,248,2,2,1,0.503,4,0.3133
1,2,4,248,0.15,87,1,248,1,1,1,0.8036,2,1.1961
1,2,4,248,0.16,88,2,248,2,1,0,0.9892,2,0.3233
1,2,4,248,0.16,89,2,248,1,2,0,0.5001,3,0.3311
1,2,4,248,0.15,90,1,248,1,1,1,1.1557,1,0.3654
1,2,4,248,0.16,91,2,248,1,1,1,1.4084,2,0.5261
1,2,4,248,0.15,92,1,248,2,2,1,0.5792,4,0.2943
1,2,4,248,0.16,93,2,248,2,2,1,1.8006,2,1.1795
1,2,4,248,0.15,94,1,248,2,2,1,0.5049,3,0.3565
1,2,4,248,0.15,95,1,248,1,2,0,0.5974,3,0.8581
1,2,4,248,0.15,96,1,248,2,2,1,0.5139,4,0.327
1,2,4,248,0.15,97,1,248,2,2,1,0.458,3,0.5431
1,2,4,248,0.16,98,2,248,1,2,0,0.5543,2,0.3673
1,2,4,248,0.15,99,1,248,2,2,1,0.7759,2,0.3932
1,2,4,248,0.16,100,2,248,2,2,1,0.6971,2,0.3625
1,2,4,248,0.15,101,1,248,2,2,1,0.5862,2,0.3334
1,2,4,248,0.15,102,1,248,2,2,1,0.5574,2,0.5123
1,2,4,248,0.16,103,2,248,2,2,1,1.854,1,0.6464
1,2,4,248,0.16,104,2,248,2,2,1,0.6248,3,0.3024
1,2,4,248,0.15,105,1,248,1,1,1,1.1947,2,0.5
1,2,4,248,0.15,106,1,248,1,1,1,1.2798,3,1.1847
1,2,4,248,0.16,107,2,248,1,1,1,0.8196,3,0.7155
1,2,4,248,0.16,108,2,248,2,2,1,0.9118,3,0.7131
1,2,4,248,0.16,109,2,248,2,2,1,0.5738,3,0.4024
1,2,4,248,0.16,110,2,248,1,1,1,0.849,3,0.5691
1,2,4,248,0.16,111,2,248,2,1,0,1.8231,3,0.3951
1,2,4,248,0.16,112,2,248,1,1,1,1.1094,2,0.4182
1,2,4,248,0.15,113,1,248,1,1,1,1.3912,3,0.412
1,2,4,248,0.16,114,2,248,2,2,1,0.9717,2,0.6158
1,2,4,248,0.16,115,2,248,2,2,1,0.6114,3,0.3191
1,2,4,248,0.15,116,1,248,1,2,0,0.4634,3,0.2635
1,2,4,248,0.15,117,1,248,2,2,1,0.7805,3,0.3491
1,2,4,248,0.15,118,1,248,2,2,1,0.432,3,0.3351
1,2,4,248,0.16,119,2,248,1,1,1,0.8322,3,0.956
1,2,4,248,0.15,120,1,248,2,2,1,0.8491,2,0.3052
1,1,6,338,0.29,1,2,338,2,1,0,0.7644,4,0.2212
1,1,6,338,0.08,2,1,338,2,1,0,1.6062,1,0.4315
1,1,6,338,0.1,3,1,338,1,0,0,0,1,0.5851
1,1,6,338,0.31,4,2,338,2,2,1,0.7814,3,0.485
1,1,6,338,0.29,5,2,338,2,2,1,0.6557,4,0.277
1,1,6,338,0.12,6,1,338,2,0,0,0,2,0.9551
1,1,6,338,0.14,7,1,338,2,2,1,0.5996,2,0.3102
1,1,6,338,0.29,8,2,338,2,2,1,0.6988,4,0.2283
1,1,6,338,0.27,9,2,338,1,1,1,0.7578,2,0.6453
1,1,6,338,0.27,10,2,338,2,2,1,1.3904,1,0.4575
1,1,6,338,0.25,11,2,338,2,2,1,0.5998,1,0.4174
1,1,6,338,0.12,12,1,338,1,0,0,0,1,1.0778
1,1,6,338,0.14,13,1,338,2,2,1,0.7694,2,0.318
1,1,6,338,0.25,14,2,338,2,2,1,0.6058,3,0.2859
1,1,6,338,0.23,15,2,338,2,2,1,0.6375,2,0.3486
1,1,6,338,0.14,16,1,338,1,1,1,1.0288,2,0.3177
1,1,6,338,0.23,17,2,338,1,1,1,0.5678,3,0.3333
1,1,6,338,0.12,18,1,338,2,2,1,1.2531,3,0.2968
1,1,6,338,0.12,19,1,338,2,2,1,0.5172,2,0.2811
1,1,6,338,0.1,20,1,338,1,1,1,0.6399,3,0.2292
1,1,6,338,0.1,21,1,338,1,2,0,1.5775,1,0.3153
1,1,6,338,0.21,22,2,338,1,1,1,0.6319,2,0.2531
1,1,6,338,0.21,23,2,338,2,1,0,1.1815,3,0.2506
1,1,6,338,0.12,24,1,338,1,1,1,1.2846,3,0.2306
1,1,6,338,0.12,25,1,338,1,1,1,0.8331,2,0.2714
1,1,6,338,0.23,26,2,338,1,1,1,1.2497,2,0.2866
1,1,6,338,0.23,27,2,338,1,1,1,0.5831,3,0.2951
1,1,6,338,0.1,28,1,338,1,1,1,0.6256,4,0.4192
1,1,6,338,0.1,29,1,338,1,1,1,0.7333,1,0.4073
1,1,6,338,0.08,30,1,338,2,2,1,0.5256,3,0.2975
1,1,6,338,0.21,31,2,338,1,1,1,0.4416,3,0.2669
1,1,6,338,0.21,32,2,338,1,1,1,0.4415,2,0.3023
1,1,6,338,0.08,33,1,338,1,2,0,1.2027,2,0.2804
1,1,6,338,0.1,34,1,338,1,1,1,0.4964,3,0.2249
1,1,6,338,0.19,35,2,338,1,1,1,0.3679,2,0.2366
1,1,6,338,0.1,36,1,338,1,2,0,1.3573,2,0.3553
1,1,6,338,0.19,37,2,338,2,2,1,0.5069,2,0.2942
1,1,6,338,0.12,38,1,338,2,2,1,0.6493,2,0.2595
1,1,6,338,0.12,39,1,338,1,1,1,0.6401,3,0.712
1,1,6,338,0.1,40,1,338,2,2,1,0.7131,1,0.2531
1,1,6,338,0.1,41,1,338,2,2,1,1.5419,1,0.4884
1,1,6,338,0.08,42,1,338,2,1,0,0.6183,2,0.3497
1,1,6,338,0.17,43,2,338,1,1,1,0.4375,2,0.3599
1,1,6,338,0.1,44,1,338,1,1,1,0.5613,2,0.3896
1,1,6,338,0.1,45,1,338,2,1,0,0.8784,3,0.5974
1,1,6,338,0.17,46,2,338,2,2,1,1.4625,1,0.3704
1,1,6,338,0.15,47,2,338,1,1,1,0.6549,1,0.3539
1,1,6,338,0.12,48,1,338,2,1,0,0.8199,1,0.2697
1,1,6,338,0.15,49,2,338,1,1,1,0.6482,3,0.3235
1,1,6,338,0.14,50,1,338,1,1,1,1.3646,2,0.2849
1,1,6,338,0.13,51,2,338,2,2,1,0.5165,1,0.3035
1,1,6,338,0.13,52,2,338,2,2,1,0.7936,2,0.2425
1,1,6,338,0.14,53,1,338,2,1,0,1.7815,1,0.4786
1,1,6,338,0.16,54,1,338,1,1,1,0.6951,1,0.2459
1,1,6,338,0.16,55,1,338,2,1,0,1.821,1,0.2676
1,1,6,338,0.16,56,1,338,1,1,1,0.8047,1,0.2266
1,1,6,338,0.11,57,2,338,1,1,1,0.3752,1,0.2067
1,1,6,338,0.11,58,2,338,1,1,1,0.6188,1,0.1884
1,1,6,338,0.09,59,2,338,1,1,1,1.1508,1,0.2256
1,1,6,338,0.09,60,2,338,2,2,1,0.7178,1,0.2546
1,1,6,338,0.16,61,1,338,2,2,1,1.7621,1,0.2514
1,1,6,338,0.07,62,2,338,2,1,0,1.0623,2,0.3305
1,1,6,338,0.09,63,2,338,1,1,1,0.9753,1,0.3245
1,1,6,338,0.16,64,1,338,1,1,1,0.7678,2,0.3007
1,1,6,338,0.16,65,1,338,1,1,1,1.2562,1,0.3015
1,1,6,338,0.16,66,1,338,1,2,0,1.4991,1,0.2733
1,1,6,338,0.16,67,1,338,1,1,1,0.6233,1,0.1479
1,1,6,338,0.09,68,2,338,2,1,0,1.0844,1,0.5021
1,1,6,338,0.09,69,2,338,2,2,1,1.09,1,0.3685
1,1,6,338,0.16,70,1,338,1,2,0,1.0044,1,0.27
1,1,6,338,0.09,71,2,338,2,1,0,0.6292,1,0.2463
1,1,6,338,0.16,72,1,338,2,2,1,1.4965,2,0.4133
1,1,6,338,0.09,73,2,338,1,1,1,0.8718,1,0.2017
1,1,6,338,0.09,74,2,338,1,1,1,1.1273,1,0.3116
1,1,6,338,0.16,75,1,338,1,1,1,0.7798,1,0.3106
1,1,6,338,0.16,76,1,338,2,2,1,0.6431,3,0.4056
1,1,6,338,0.16,77,1,338,2,2,1,0.6487,3,0.3405
1,1,6,338,0.09,78,2,338,1,1,1,0.7824,2,0.3
1,1,6,338,0.16,79,1,338,1,1,1,0.8287,1,0.3475
1,1,6,338,0.09,80,2,338,1,1,1,0.8534,1,0.3696
1,1,6,338,0.09,81,2,338,1,1,1,0.6613,2,0.3363
1,1,6,338,0.16,82,1,338,1,1,1,1.1267,1,0.2842
1,1,6,338,0.09,83,2,338,2,1,0,0.7528,1,0.3758
1,1,6,338,0.09,84,2,338,2,1,0,0.5827,1,0.302
1,1,6,338,0.09,85,2,338,2,1,0,0.5367,1,0.2774
1,1,6,338,0.16,86,1,338,1,2,0,0.783,1,0.3
1,1,6,338,0.09,87,2,338,1,2,0,0.6442,1,0.3335
1,1,6,338,0.09,88,2,338,2,0,0,0,1,0.3924
1,1,6,338,0.09,89,2,338,2,1,0,1.1932,1,0.2488
1,1,6,338,0.16,90,1,338,2,1,0,0.6722,1,0.3311
1,1,6,338,0.16,91,1,338,2,2,1,0.6426,1,0.2938
1,1,6,338,0.16,92,1,338,2,2,1,1.5606,1,0.3448
1,1,6,338,0.16,93,1,338,2,2,1,0.6884,2,0.2745
1,1,6,338,0.16,94,1,338,2,1,0,0.5429,1,0.1893
1,1,6,338,0.09,95,2,338,1,1,1,1.3695,1,0.4373
1,1,6,338,0.09,96,2,338,2,1,0,1.1563,3,0.3612
1,1,6,338,0.09,97,2,338,2,2,1,1.2944,0,0
1,1,6,338,0.09,98,2,338,1,1,1,1.7739,1,0.4053
1,1,6,338,0.09,99,2,338,2,1,0,0.8571,2,0.3586
1,1,6,338,0.09,100,2,338,2,0,0,0,1,2.965
1,1,6,338,0.09,101,2,338,1,1,1,0.7304,2,0.3096
1,1,6,338,0.09,102,2,338,2,1,0,1.1237,1,0.5604
1,1,6,338,0.16,103,1,338,1,1,1,0.8675,1,0.3945
1,1,6,338,0.09,104,2,338,1,2,0,0.9719,2,0.4898
1,1,6,338,0.16,105,1,338,2,2,1,1.1759,1,0.3529
1,1,6,338,0.16,106,1,338,1,1,1,0.8081,1,0.3435
1,1,6,338,0.09,107,2,338,1,1,1,0.7246,1,0.3254
1,1,6,338,0.16,108,1,338,1,1,1,0.5538,2,0.3574
1,1,6,338,0.09,109,2,338,1,1,1,0.9701,2,0.3746
1,1,6,338,0.16,110,1,338,2,1,0,0.5993,1,0.3414
1,1,6,338,0.16,111,1,338,2,1,0,1.1712,1,0.3076
1,1,6,338,0.09,112,2,338,2,2,1,0.5558,1,0.3287
1,1,6,338,0.16,113,1,338,2,1,0,0.5597,3,0.3641
1,1,6,338,0.09,114,2,338,1,2,0,1.1229,1,0.4156
1,1,6,338,0.16,115,1,338,1,1,1,1.0303,2,0.3315
1,1,6,338,0.09,116,2,338,2,2,1,0.9363,1,0.3877
1,1,6,338,0.16,117,1,338,2,1,0,0.6306,1,0.3485
1,1,6,338,0.09,118,2,338,1,1,1,1.0682,1,0.3116
1,1,6,338,0.16,119,1,338,2,1,0,0.9356,1,0.3503
1,1,6,338,0.09,120,2,338,1,0,0,0,1,0.5548
1,2,6,338,0.29,1,2,338,2,0,0,0,4,1.5658
1,2,6,338,0.08,2,1,338,2,1,0,0.6064,4,0.2125
1,2,6,338,0.31,3,2,338,1,1,1,0.3985,3,0.4136
1,2,6,338,0.29,4,2,338,2,2,1,0.5164,4,0.4166
1,2,6,338,0.29,5,2,338,1,1,1,1.7503,2,0.3202
1,2,6,338,0.27,6,2,338,2,2,1,0.5643,4,0.2258
1,2,6,338,0.1,7,1,338,2,2,1,0.75,3,0.212
1,2,6,338,0.08,8,1,338,1,1,1,0.884,2,0.29
1,2,6,338,0.08,9,1,338,2,2,1,0.8992,3,0.2623
1,2,6,338,0.27,10,2,338,2,2,1,0.462,4,0.2641
1,2,6,338,0.06,11,1,338,1,2,0,0.7208,2,0.2739
1,2,6,338,0.08,12,1,338,1,2,0,0.6891,3,0.305
1,2,6,338,0.1,13,1,338,1,1,1,0.7661,2,0.34
1,2,6,338,0.25,14,2,338,1,1,1,0.5073,4,0.282
1,2,6,338,0.25,15,2,338,1,1,1,0.4271,4,0.298
1,2,6,338,0.23,16,2,338,2,2,1,0.563,4,0.2623
1,2,6,338,0.1,17,1,338,1,1,1,0.7446,1,0.2628
1,2,6,338,0.23,18,2,338,2,2,1,0.4949,3,0.268
1,2,6,338,0.08,19,1,338,1,1,1,0.5249,4,0.2751
1,2,6,338,0.21,20,2,338,2,2,1,0.6437,4,0.2969
1,2,6,338,0.08,21,1,338,1,1,1,0.8172,2,0.2428
1,2,6,338,0.06,22,1,338,1,1,1,0.6782,3,0.2735
1,2,6,338,0.06,23,1,338,2,1,0,0.6459,2,0.2709
1,2,6,338,0.21,24,2,338,1,1,1,0.4505,3,0.2297
1,2,6,338,0.08,25,1,338,2,2,1,1.3053,1,0.2919
1,2,6,338,0.19,26,2,338,2,2,1,0.5677,4,0.3024
1,2,6,338,0.08,27,1,338,1,1,1,0.5841,2,0.2795
1,2,6,338,0.19,28,2,338,1,1,1,0.3725,3,0.2524
1,2,6,338,0.17,29,2,338,2,2,1,0.5561,3,0.2935
1,2,6,338,0.17,30,2,338,1,1,1,0.4145,3,0.2808
1,2,6,338,0.15,31,2,338,1,1,1,0.4344,4,0.3202
1,2,6,338,0.06,32,1,338,1,2,0,1.3362,2,0.3017
1,2,6,338,0.08,33,1,338,1,1,1,0.498,3,0.2661
1,2,6,338,0.15,34,2,338,2,2,1,0.5542,4,0.312
1,2,6,338,0.08,35,1,338,1,1,1,0.5039,4,0.3004
1,2,6,338,0.13,36,2,338,1,1,1,0.4138,4,0.2301
1,2,6,338,0.13,37,2,338,1,2,0,1.8301,1,0.3472
1,2,6,338,0.06,38,1,338,1,1,1,0.34,4,0.2796
1,2,6,338,0.06,39,1,338,2,2,1,0.6734,1,0.4117
1,2,6,338,0.15,40,2,338,2,2,1,0.4985,3,0.2982
1,2,6,338,0.04,41,1,338,1,2,0,1.9358,1,0.2624
1,2,6,338,0.06,42,1,338,1,1,1,1.0403,1,0.3545
1,2,6,338,0.15,43,2,338,2,2,1,0.8533,2,0.3545
1,2,6,338,0.13,44,2,338,1,1,1,0.4465,1,0.3501
1,2,6,338,0.06,45,1,338,1,1,1,1.1471,1,0.2223
1,2,6,338,0.13,46,2,338,1,1,1,1.0746,1,0.2837
1,2,6,338,0.04,47,1,338,2,1,0,0.4189,1,0.2979
1,2,6,338,0.06,48,1,338,2,1,0,0.7698,1,0.2859
1,2,6,338,0.08,49,1,338,2,1,0,0.5318,1,0.2415
1,2,6,338,0.1,50,1,338,1,2,0,0.6128,1,0.3028
1,2,6,338,0.11,51,2,338,2,1,0,1.6624,1,0.3737
1,2,6,338,0.12,52,1,338,2,2,1,0.9714,1,0.3839
1,2,6,338,0.13,53,2,338,1,1,1,0.4911,1,0.2963
1,2,6,338,0.12,54,1,338,1,1,1,0.648,1,0.3142
1,2,6,338,0.13,55,2,338,2,2,1,0.8135,1,0.2948
1,2,6,338,0.11,56,2,338,1,1,1,0.8316,1,0.3052
1,2,6,338,0.1,57,1,338,2,1,0,0.6659,1,0.2601
1,2,6,338,0.11,58,2,338,2,1,0,0.6864,1,0.292
1,2,6,338,0.13,59,2,338,1,1,1,0.793,2,0.2808
1,2,6,338,0.13,60,2,338,1,1,1,0.8588,2,0.2421
1,2,6,338,0.12,61,1,338,1,0,0,0,1,0.8919
1,2,6,338,0.13,62,2,338,1,1,1,1.5909,1,0.3801
1,2,6,338,0.13,63,2,338,2,2,1,0.9508,1,0.3219
1,2,6,338,0.13,64,2,338,1,1,1,0.6829,1,0.2843
1,2,6,338,0.13,65,2,338,1,1,1,0.4304,1,0.2782
1,2,6,338,0.12,66,1,338,2,1,0,0.6655,1,0.284
1,2,6,338,0.12,67,1,338,2,1,0,0.877,1,0.2663
1,2,6,338,0.12,68,1,338,2,2,1,1.4998,1,0.3492
1,2,6,338,0.12,69,1,338,2,2,1,1.6907,1,0.312
1,2,6,338,0.12,70,1,338,2,0,0,0,1,0.6472
1,2,6,338,0.12,71,1,338,1,1,1,1.3422,1,0.3723
1,2,6,338,0.12,72,1,338,1,2,0,1.8045,1,0.3528
1,2,6,338,0.12,73,1,338,2,1,0,0.718,1,0.2901
1,2,6,338,0.13,74,2,338,2,2,1,0.8581,1,0.2962
1,2,6,338,0.12,75,1,338,1,1,1,0.614,1,0.4417
1,2,6,338,0.13,76,2,338,2,1,0,1.1064,1,0.3158
1,2,6,338,0.13,77,2,338,2,1,0,1.7592,1,0.4282
1,2,6,338,0.13,78,2,338,1,1,1,0.9208,1,0.3527
1,2,6,338,0.12,79,1,338,2,1,0,1.3554,1,0.3628
1,2,6,338,0.12,80,1,338,1,1,1,1.1458,1,0.3972
1,2,6,338,0.13,81,2,338,2,2,1,1.0713,2,0.4042
1,2,6,338,0.13,82,2,338,2,2,1,0.6437,2,0.3445
1,2,6,338,0.12,83,1,338,1,1,1,1.0643,1,0.3516
1,2,6,338,0.13,84,2,338,1,1,1,0.774,1,0.3187
1,2,6,338,0.12,85,1,338,2,1,0,0.7477,1,0.3782
1,2,6,338,0.12,86,1,338,2,1,0,0.7377,1,0.3241
1,2,6,338,0.13,87,2,338,2,2,1,0.5997,1,0.3228
1,2,6,338,0.13,88,2,338,2,1,0,1.3306,1,0.3636
1,2,6,338,0.13,89,2,338,1,2,0,1.2257,1,0.3012
1,2,6,338,0.12,90,1,338,2,1,0,0.9279,1,0.3737
1,2,6,338,0.12,91,1,338,2,1,0,1.2711,2,0.428
1,2,6,338,0.13,92,2,338,1,2,0,1.4284,1,0.368
1,2,6,338,0.13,93,2,338,2,2,1,0.7902,1,0.4145
1,2,6,338,0.13,94,2,338,1,1,1,0.6512,1,0.4129
1,2,6,338,0.13,95,2,338,1,1,1,0.6381,1,0.4874
1,2,6,338,0.13,96,2,338,1,1,1,0.4487,1,0.4453
1,2,6,338,0.12,97,1,338,2,1,0,0.7615,1,0.384
1,2,6,338,0.13,98,2,338,1,1,1,0.4724,1,0.4203
1,2,6,338,0.12,99,1,338,2,1,0,0.5416,1,0.37
1,2,6,338,0.13,100,2,338,2,2,1,0.8962,2,0.479
1,2,6,338,0.13,101,2,338,2,1,0,0.909,1,0.4378
1,2,6,338,0.12,102,1,338,2,2,1,0.5202,1,0.3564
1,2,6,338,0.13,103,2,338,2,2,1,0.534,1,0.3958
1,2,6,338,0.12,104,1,338,2,1,0,0.7522,1,0.4149
1,2,6,338,0.12,105,1,338,2,2,1,1.5472,1,0.227
1,2,6,338,0.12,106,1,338,1,1,1,0.7248,1,0.2471
1,2,6,338,0.12,107,1,338,1,2,0,1.0339,1,0.3456
1,2,6,338,0.12,108,1,338,2,2,1,1.6385,1,0.3751
1,2,6,338,0.12,109,1,338,1,1,1,1.7107,1,0.4079
1,2,6,338,0.13,110,2,338,2,2,1,0.8028,1,0.416
1,2,6,338,0.13,111,2,338,2,2,1,0.5745,1,0.3392
1,2,6,338,0.12,112,1,338,2,2,1,0.733,1,0.4138
1,2,6,338,0.12,113,1,338,2,2,1,1.0571,2,0.3142
1,2,6,338,0.12,114,1,338,1,1,1,0.6545,2,0.3546
1,2,6,338,0.13,115,2,338,1,1,1,1.1901,1,0.3528
1,2,6,338,0.12,116,1,338,1,1,1,1.841,1,0.3634
1,2,6,338,0.13,117,2,338,1,1,1,1.2156,1,0.3531
1,2,6,338,0.12,118,1,338,1,1,1,0.656,1,0.2756
1,2,6,338,0.13,119,2,338,1,1,1,0.5475,1,0.2509
1,2,6,338,0.13,120,2,338,2,1,0,1.1508,2,0.244
1,1,7,68,0.18,1,1,68,1,1,1,0.6129,4,0.3257
1,1,7,68,0.23,2,2,68,1,1,1,0.375,4,0.3187
1,1,7,68,0.16,3,1,68,1,1,1,0.3563,4,0.3185
1,1,7,68,0.14,4,1,68,2,2,1,0.4991,3,0.3403
1,1,7,68,0.21,5,2,68,1,1,1,0.5538,4,0.2955
1,1,7,68,0.12,6,1,68,2,2,1,0.7197,3,0.2859
1,1,7,68,0.19,7,2,68,1,1,1,0.9292,4,0.3289
1,1,7,68,0.1,8,1,68,2,1,0,0.4414,4,0.3035
1,1,7,68,0.12,9,1,68,2,2,1,0.6779,4,0.2935
1,1,7,68,0.12,10,1,68,1,1,1,0.3767,4,0.2218
1,1,7,68,0.17,11,2,68,1,1,1,0.3619,4,0.2492
1,1,7,68,0.1,12,1,68,1,1,1,0.46,4,0.2387
1,1,7,68,0.1,13,1,68,1,1,1,0.4101,4,0.2788
1,1,7,68,0.15,14,2,68,1,1,1,0.2488,4,0.1988
1,1,7,68,0.13,15,2,68,2,2,1,0.4975,3,0.315
1,1,7,68,0.08,16,1,68,2,1,0,0.2835,4,0.3545
1,1,7,68,0.1,17,1,68,1,2,0,0.9075,3,0.3063
1,1,7,68,0.12,18,1,68,1,1,1,0.741,4,0.463
1,1,7,68,0.11,19,2,68,1,1,1,1.199,2,0.2967
1,1,7,68,0.09,20,2,68,1,1,1,0.7811,4,0.3518
1,1,7,68,0.12,21,1,68,1,1,1,0.2659,4,0.25
1,1,7,68,0.07,22,2,68,1,1,1,0.3991,4,0.2767
1,1,7,68,0.1,23,1,68,1,2,0,0.5591,3,0.3718
1,1,7,68,0.12,24,1,68,2,2,1,0.7406,4,0.3172
1,1,7,68,0.05,25,2,68,2,1,0,0.6285,2,0.3204
1,1,7,68,0.07,26,2,68,2,2,1,0.5373,3,0.3502
1,1,7,68,0.07,27,2,68,1,2,0,1.1041,4,0.2479
1,1,7,68,0.09,28,2,68,2,2,1,0.6907,4,0.2295
1,1,7,68,0.09,29,2,68,1,1,1,0.4881,4,0.2441
1,1,7,68,0.07,30,2,68,2,1,0,0.4195,4,0.1929
1,1,7,68,0.12,31,1,68,1,1,1,1.0778,2,0.3336
1,1,7,68,0.1,32,1,68,2,1,0,0.375,4,0.2208
1,1,7,68,0.09,33,2,68,2,2,1,1.033,3,0.2623
1,1,7,68,0.12,34,1,68,1,1,1,0.703,4,0.2724
1,1,7,68,0.12,35,1,68,1,2,0,0.8344,3,0.2004
1,1,7,68,0.14,36,1,68,2,1,0,0.5478,2,0.234
1,1,7,68,0.16,37,1,68,1,1,1,0.5432,4,0.1789
1,1,7,68,0.09,38,2,68,2,1,0,1.0206,2,0.1707
1,1,7,68,0.16,39,1,68,2,2,1,0.7581,4,0.3191
1,1,7,68,0.11,40,2,68,1,1,1,0.598,4,0.2591
1,1,7,68,0.11,41,2,68,2,1,0,0.6962,2,0.5527
1,1,7,68,0.14,42,1,68,1,1,1,0.4321,3,0.3641
1,1,7,68,0.13,43,2,68,2,2,1,1.0343,4,0.2647
1,1,7,68,0.14,44,1,68,2,1,0,0.5929,4,0.3973
1,1,7,68,0.13,45,2,68,2,2,1,0.5323,3,0.6016
1,1,7,68,0.11,46,2,68,2,1,0,0.7372,4,0.331
1,1,7,68,0.13,47,2,68,2,1,0,0.3837,4,0.2576
1,1,7,68,0.16,48,1,68,2,1,0,0.6877,3,0.3292
1,1,7,68,0.15,49,2,68,1,1,1,0.5138,3,0.4906
1,1,7,68,0.18,50,1,68,1,1,1,0.4351,4,0.3031
1,1,7,68,0.15,51,2,68,2,2,1,1.2485,4,0.3401
1,1,7,68,0.18,52,1,68,2,1,0,0.508,4,0.2979
1,1,7,68,0.13,53,2,68,2,2,1,0.8059,4,0.264
1,1,7,68,0.13,54,2,68,1,1,1,0.5019,4,0.1305
1,1,7,68,0.11,55,2,68,2,2,1,0.6142,4,0.1549
1,1,7,68,0.2,56,1,68,2,2,1,0.6254,4,0.1503
1,1,7,68,0.11,57,2,68,2,1,0,1.1488,3,0.3065
1,1,7,68,0.2,58,1,68,2,2,1,0.6529,4,0.1332
1,1,7,68,0.18,59,1,68,1,1,1,0.6469,4,0.17
1,1,7,68,0.13,60,2,68,2,2,1,0.5609,3,0.2433
1,1,7,68,0.18,61,1,68,1,1,1,1.0824,3,0.371
1,1,7,68,0.13,62,2,68,1,2,0,0.8583,3,0.2473
1,1,7,68,0.13,63,2,68,1,1,1,0.951,4,0.2614
1,1,7,68,0.13,64,2,68,1,1,1,0.4165,4,0.1754
1,1,7,68,0.18,65,1,68,2,2,1,0.9146,3,0.2507
1,1,7,68,0.18,66,1,68,1,1,1,1.2139,3,0.2826
1,1,7,68,0.13,67,2,68,1,1,1,0.526,4,0.1206
1,1,7,68,0.18,68,1,68,2,2,1,0.6079,4,0.116
1,1,7,68,0.13,69,2,68,1,1,1,0.7008,3,0.1591
1,1,7,68,0.13,70,2,68,1,1,1,1.6526,1,0.2453
1,1,7,68,0.13,71,2,68,2,2,1,1.3949,4,0.3074
1,1,7,68,0.18,72,1,68,2,1,0,1.321,3,0.2075
1,1,7,68,0.13,73,2,68,2,1,0,0.9816,4,0.425
1,1,7,68,0.13,74,2,68,1,0,0,0,3,0.267
1,1,7,68,0.18,75,1,68,2,2,1,0.6783,3,0.1587
1,1,7,68,0.13,76,2,68,1,2,0,1.1517,4,0.2754
1,1,7,68,0.18,77,1,68,1,1,1,0.6251,3,0.4027
1,1,7,68,0.18,78,1,68,1,1,1,0.4665,3,0.1814
1,1,7,68,0.13,79,2,68,1,2,0,0.5465,3,0.1993
1,1,7,68,0.13,80,2,68,2,2,1,0.6719,4,0.1723
1,1,7,68,0.18,81,1,68,1,1,1,0.448,4,0.1004
1,1,7,68,0.13,82,2,68,2,1,0,0.7714,4,0.1812
1,1,7,68,0.18,83,1,68,2,2,1,0.4867,3,0.3087
1,1,7,68,0.18,84,1,68,1,1,1,0.833,3,0.2834
1,1,7,68,0.18,85,1,68,1,1,1,0.5095,3,0.281
1,1,7,68,0.18,86,1,68,2,2,1,0.6969,3,0.0783
1,1,7,68,0.18,87,1,68,2,1,0,0.9964,3,0.2541
1,1,7,68,0.13,88,2,68,1,1,1,0.4124,3,0.1853
1,1,7,68,0.13,89,2,68,2,1,0,0.3824,3,0.1018
1,1,7,68,0.13,90,2,68,2,1,0,0.373,3,0.0755
1,1,7,68,0.13,91,2,68,2,1,0,0.4938,3,0.1207
1,1,7,68,0.13,92,2,68,1,1,1,1.0879,2,0.1825
1,1,7,68,0.13,93,2,68,1,2,0,0.8238,3,0.1287
1,1,7,68,0.18,94,1,68,1,1,1,0.5072,4,0.4058
1,1,7,68,0.13,95,2,68,1,1,1,0.3039,4,0.5185
1,1,7,68,0.13,96,2,68,1,1,1,0.73,2,0.2924
1,1,7,68,0.18,97,1,68,2,1,0,0.346,2,0.5063
1,1,7,68,0.18,98,1,68,2,2,1,0.53,4,0.8549
1,1,7,68,0.18,99,1,68,1,1,1,1.2834,3,0.5736
1,1,7,68,0.18,100,1,68,1,1,1,0.4668,2,0.5986
1,1,7,68,0.18,101,1,68,1,1,1,0.5949,3,0.3959
1,1,7,68,0.13,102,2,68,2,1,0,0.3742,3,0.2856
1,1,7,68,0.13,103,2,68,2,1,0,0.5329,3,0.4897
1,1,7,68,0.18,104,1,68,2,2,1,0.293,3,0.62
1,1,7,68,0.13,105,2,68,1,1,1,0.8577,2,0.3931
1,1,7,68,0.13,106,2,68,2,2,1,0.9458,2,0.2579
1,1,7,68,0.13,107,2,68,1,2,0,0.6834,3,0.3096
1,1,7,68,0.18,108,1,68,2,1,0,0.5105,3,0.379
1,1,7,68,0.18,109,1,68,2,1,0,0.3574,3,0.3404
1,1,7,68,0.18,110,1,68,2,2,1,0.564,4,0.9369
1,1,7,68,0.13,111,2,68,2,1,0,0.338,4,0.225
1,1,7,68,0.18,112,1,68,2,1,0,0.4694,4,0.1235
1,1,7,68,0.13,113,2,68,2,2,1,0.6954,3,0.3783
1,1,7,68,0.18,114,1,68,1,1,1,1.2861,3,0.1153
1,1,7,68,0.18,115,1,68,1,1,1,0.6815,3,0.3041
1,1,7,68,0.18,116,1,68,2,2,1,0.3969,3,0.3705
1,1,7,68,0.18,117,1,68,2,1,0,0.8563,3,0.2151
1,1,7,68,0.13,118,2,68,1,1,1,0.7269,3,0.551
1,1,7,68,0.13,119,2,68,2,2,1,0.559,3,0.4013
1,1,7,68,0.18,120,1,68,1,1,1,0.5477,4,0.6011
1,2,7,68,0.18,1,1,68,1,2,0,0.6649,4,0.203
1,2,7,68,0.2,2,1,68,1,1,1,0.3176,4,0.1655
1,2,7,68,0.18,3,1,68,1,1,1,0.2758,4,0.096
1,2,7,68,0.23,4,2,68,1,1,1,0.1744,4,0.0688
1,2,7,68,0.21,5,2,68,2,2,1,0.4451,3,0.2484
1,2,7,68,0.19,6,2,68,2,2,1,0.5545,3,0.1353
1,2,7,68,0.18,7,1,68,1,1,1,0.4885,4,0.0813
1,2,7,68,0.17,8,2,68,2,1,0,0.428,4,0.1332
1,2,7,68,0.19,9,2,68,1,1,1,0.2713,4,0.1074
1,2,7,68,0.19,10,2,68,2,2,1,0.5867,4,0.1912
1,2,7,68,0.17,11,2,68,2,2,1,0.4533,4,0.1218
1,2,7,68,0.16,12,1,68,2,1,0,0.5348,4,0.0889
1,2,7,68,0.17,13,2,68,1,1,1,0.3908,4,0.2688
1,2,7,68,0.15,14,2,68,2,2,1,0.4228,4,0.0845
1,2,7,68,0.18,15,1,68,1,1,1,0.5396,3,0.2225
1,2,7,68,0.18,16,1,68,2,2,1,0.5029,2,0.2087
1,2,7,68,0.16,17,1,68,2,2,1,0.4997,2,0.1592
1,2,7,68,0.15,18,2,68,1,1,1,0.5156,2,0.2395
1,2,7,68,0.16,19,1,68,2,2,1,0.5772,2,0.2225
1,2,7,68,0.14,20,1,68,1,1,1,0.6992,3,0.1892
1,2,7,68,0.14,21,1,68,2,2,1,0.6578,2,0.4764
1,2,7,68,0.12,22,1,68,1,1,1,0.3665,4,0.1549
1,2,7,68,0.13,23,2,68,1,2,0,0.6293,4,0.1672
1,2,7,68,0.15,24,2,68,1,1,1,0.5747,2,0.2006
1,2,7,68,0.15,25,2,68,1,2,0,0.634,3,0.1677
1,2,7,68,0.17,26,2,68,1,1,1,0.5314,3,0.1671
1,2,7,68,0.17,27,2,68,1,2,0,0.5281,3,0.1484
1,2,7,68,0.19,28,2,68,1,1,1,0.3667,3,0.1336
1,2,7,68,0.19,29,2,68,2,2,1,0.5641,3,0.3429
1,2,7,68,0.17,30,2,68,1,1,1,0.2829,3,0.1393
1,2,7,68,0.12,31,1,68,2,2,1,0.4689,3,0.2334
1,2,7,68,0.1,32,1,68,2,2,1,0.4038,3,0.1363
1,2,7,68,0.17,33,2,68,2,2,1,0.4564,3,0.1268
1,2,7,68,0.15,34,2,68,1,1,1,0.4423,3,0.0667
1,2,7,68,0.15,35,2,68,2,1,0,0.5611,3,0.0858
1,2,7,68,0.17,36,2,68,1,1,1,0.5293,3,0.0368
1,2,7,68,0.1,37,1,68,1,1,1,0.5647,3,0.1055
1,2,7,68,0.08,38,1,68,1,2,0,0.4365,3,0.0961
1,2,7,68,0.1,39,1,68,2,1,0,0.3773,3,0.0643
1,2,7,68,0.17,40,2,68,2,2,1,0.3059,3,0.1013
1,2,7,68,0.15,41,2,68,2,1,0,0.696,4,0.3325
1,2,7,68,0.12,42,1,68,1,1,1,0.552,4,0.1871
1,2,7,68,0.12,43,1,68,2,2,1,0.5648,3,0.1362
1,2,7,68,0.17,44,2,68,1,1,1,0.5156,3,0.0813
1,2,7,68,0.17,45,2,68,2,2,1,0.6149,4,0.1856
1,2,7,68,0.15,46,2,68,2,2,1,1.1523,4,0.0868
1,2,7,68,0.1,47,1,68,2,1,0,0.5844,3,0.1809
1,2,7,68,0.12,48,1,68,1,1,1,0.532,3,0.1054
1,2,7,68,0.12,49,1,68,2,1,0,0.7718,3,0.0369
1,2,7,68,0.14,50,1,68,2,2,1,0.5898,3,0.0422
1,2,7,68,0.14,51,1,68,2,2,1,0.6059,3,0.248
1,2,7,68,0.12,52,1,68,1,1,1,0.4539,3,0.0593
1,2,7,68,0.12,53,1,68,1,1,1,0.5233,3,0.4868
1,2,7,68,0.1,54,1,68,1,1,1,0.6066,3,0.0841
1,2,7,68,0.1,55,1,68,2,1,0,0.54,4,0.1934
1,2,7,68,0.15,56,2,68,1,1,1,1.2095,1,0.2799
1,2,7,68,0.12,57,1,68,2,1,0,1.0494,2,0.2325
1,2,7,68,0.13,58,2,68,1,1,1,1.0895,2,0.1693
1,2,7,68,0.14,59,1,68,2,2,1,0.8255,1,0.3489
1,2,7,68,0.14,60,1,68,1,1,1,0.5649,1,0.1531
1,2,7,68,0.13,61,2,68,1,1,1,0.5956,2,0.6366
1,2,7,68,0.14,62,1,68,1,1,1,0.589,3,0.1541
1,2,7,68,0.13,63,2,68,2,1,0,1.0824,3,0.1264
1,2,7,68,0.14,64,1,68,2,1,0,0.5318,3,0.0245
1,2,7,68,0.13,65,2,68,1,2,0,0.5031,3,0.0343
1,2,7,68,0.14,66,1,68,1,1,1,0.5084,3,0.0406
1,2,7,68,0.13,67,2,68,1,1,1,0.4179,3,0.0315
1,2,7,68,0.13,68,2,68,2,1,0,0.5866,1,0.0872
1,2,7,68,0.14,69,1,68,2,1,0,0.6653,1,0.1158
1,2,7,68,0.14,70,1,68,2,2,1,0.5006,2,0.1774
1,2,7,68,0.14,71,1,68,2,1,0,0.3074,2,0.0755
1,2,7,68,0.14,72,1,68,1,2,0,0.7027,2,0.3514
1,2,7,68,0.13,73,2,68,2,1,0,0.3668,2,0.2935
1,2,7,68,0.13,74,2,68,1,1,1,0.6216,1,0.1288
1,2,7,68,0.13,75,2,68,2,1,0,0.5689,2,0.0866
1,2,7,68,0.13,76,2,68,1,2,0,0.9195,3,0.272
1,2,7,68,0.13,77,2,68,1,2,0,0.563,1,0.2801
1,2,7,68,0.14,78,1,68,2,1,0,0.445,3,0.227
1,2,7,68,0.14,79,1,68,2,1,0,0.4917,2,0.1816
1,2,7,68,0.14,80,1,68,1,1,1,0.5705,2,0.1676
1,2,7,68,0.13,81,2,68,1,1,1,0.4098,3,0.1498
1,2,7,68,0.14,82,1,68,1,1,1,0.5093,3,0.1838
1,2,7,68,0.14,83,1,68,1,2,0,0.6359,3,0.1102
1,2,7,68,0.14,84,1,68,2,2,1,0.7126,3,0.4127
1,2,7,68,0.14,85,1,68,1,1,1,0.4214,3,0.0987
1,2,7,68,0.14,86,1,68,2,2,1,0.4747,3,0.0656
1,2,7,68,0.13,87,2,68,1,2,0,0.704,3,0.0688
1,2,7,68,0.13,88,2,68,2,1,0,0.4274,3,0.1215
1,2,7,68,0.14,89,1,68,1,1,1,0.4009,3,0.1182
1,2,7,68,0.13,90,2,68,2,1,0,0.8394,2,0.1269
1,2,7,68,0.14,91,1,68,1,1,1,0.5389,3,0.2677
1,2,7,68,0.14,92,1,68,1,1,1,0.2291,3,0.1264
1,2,7,68,0.13,93,2,68,2,1,0,1.2642,1,0.0601
1,2,7,68,0.14,94,1,68,2,2,1,0.6611,3,0.2414
1,2,7,68,0.13,95,2,68,1,1,1,0.5238,2,0.2622
1,2,7,68,0.13,96,2,68,1,1,1,0.471,3,0.1705
1,2,7,68,0.14,97,1,68,1,2,0,0.7591,3,0.1115
1,2,7,68,0.13,98,2,68,1,1,1,0.3031,3,0.053
1,2,7,68,0.14,99,1,68,2,1,0,0.5545,3,0.141
1,2,7,68,0.14,100,1,68,1,2,0,0.6652,3,0.15
1,2,7,68,0.13,101,2,68,2,2,1,0.5313,3,0.0731
1,2,7,68,0.13,102,2,68,2,2,1,0.7893,4,0.1825
1,2,7,68,0.14,103,1,68,1,1,1,0.3447,3,0.1036
1,2,7,68,0.14,104,1,68,2,1,0,0.4494,3,0.1044
1,2,7,68,0.13,105,2,68,1,2,0,0.8209,3,0.1869
1,2,7,68,0.13,106,2,68,2,2,1,0.7424,4,0.1779
1,2,7,68,0.14,107,1,68,1,1,1,0.4269,3,0.2309
1,2,7,68,0.13,108,2,68,2,2,1,0.6509,3,0.2302
1,2,7,68,0.13,109,2,68,2,2,1,0.5136,3,0.0793
1,2,7,68,0.13,110,2,68,2,2,1,0.565,3,0.1373
1,2,7,68,0.13,111,2,68,2,1,0,0.4037,3,0.1864
1,2,7,68,0.13,112,2,68,2,2,1,0.5191,3,0.1965
1,2,7,68,0.13,113,2,68,2,2,1,0.4698,3,0.1854
1,2,7,68,0.14,114,1,68,2,2,1,0.5827,3,0.0155
1,2,7,68,0.14,115,1,68,1,1,1,0.8718,1,0.1533
1,2,7,68,0.14,116,1,68,2,1,0,0.7134,2,0.14
1,2,7,68,0.14,117,1,68,2,2,1,0.4333,3,0.1756
1,2,7,68,0.13,118,2,68,1,1,1,0.5632,3,0.1339
1,2,7,68,0.13,119,2,68,2,2,1,0.4022,3,0.1057
1,2,7,68,0.13,120,2,68,1,2,0,0.3287,3,0.0882
1,1,10,248,0.13,1,1,248,2,2,1,1.0084,0,0
1,1,10,248,0.11,2,1,248,2,1,0,0.6793,1,1.5726
1,1,10,248,0.13,3,1,248,1,1,1,0.758,2,1.9544
1,1,10,248,0.13,4,1,248,2,2,1,1.2027,2,1.2194
1,1,10,248,0.24,5,2,248,1,1,1,0.8102,3,0.8331
1,1,10,248,0.11,6,1,248,1,1,1,0.8803,2,0.7116
1,1,10,248,0.11,7,1,248,2,2,1,0.6509,2,0.707
1,1,10,248,0.09,8,1,248,2,1,0,0.7655,2,1.1108
1,1,10,248,0.22,9,2,248,2,1,0,0.7809,2,0.7809
1,1,10,248,0.11,10,1,248,1,1,1,0.9191,2,0.8951
1,1,10,248,0.11,11,1,248,2,2,1,0.8085,2,1.4134
1,1,10,248,0.09,12,1,248,2,1,0,0.7632,2,0.7723
1,1,10,248,0.11,13,1,248,1,1,1,1.2239,2,0.8123
1,1,10,248,0.11,14,1,248,2,1,0,0.7192,2,0.5716
1,1,10,248,0.24,15,2,248,1,2,0,0.9493,2,1.1092
1,1,10,248,0.13,16,1,248,1,1,1,0.8455,2,0.7275
1,1,10,248,0.26,17,2,248,2,1,0,0.8421,2,0.6599
1,1,10,248,0.13,18,1,248,1,2,0,0.9369,2,1.0149
1,1,10,248,0.28,19,2,248,2,2,1,0.7716,3,0.6739
1,1,10,248,0.15,20,1,248,2,1,0,0.7396,3,0.5745
1,1,10,248,0.28,21,2,248,2,2,1,0.8723,3,0.809
1,1,10,248,0.26,22,2,248,2,1,0,0.7846,3,0.6416
1,1,10,248,0.17,23,1,248,1,1,1,0.6578,2,1.0369
1,1,10,248,0.17,24,1,248,2,1,0,0.7759,2,0.8575
1,1,10,248,0.19,25,1,248,1,2,0,0.7679,2,0.5866
1,1,10,248,0.21,26,1,248,2,1,0,1.2847,3,1.2041
1,1,10,248,0.23,27,1,248,1,1,1,1.644,3,0.7797
1,1,10,248,0.28,28,2,248,2,2,1,1.7494,3,0.7027
1,1,10,248,0.23,29,1,248,2,2,1,1.2288,3,0.4815
1,1,10,248,0.28,30,2,248,1,1,1,1.5709,3,0.5456
1,1,10,248,0.26,31,2,248,1,1,1,0.7289,3,0.3727
1,1,10,248,0.21,32,1,248,1,1,1,0.8543,3,0.295
1,1,10,248,0.21,33,1,248,2,2,1,0.9296,2,0.3681
1,1,10,248,0.26,34,2,248,2,1,0,1.2225,2,0.2518
1,1,10,248,0.28,35,2,248,2,2,1,0.7252,3,0.3587
1,1,10,248,0.28,36,2,248,2,2,1,0.8693,3,0.3404
1,1,10,248,0.26,37,2,248,2,1,0,0.6226,2,0.3532
1,1,10,248,0.19,38,1,248,1,1,1,1.1059,3,0.3001
1,1,10,248,0.28,39,2,248,2,2,1,0.6113,3,0.4082
1,1,10,248,0.28,40,2,248,1,1,1,0.7714,3,0.4665
1,1,10,248,0.19,41,1,248,2,2,1,0.6442,2,0.646
1,1,10,248,0.26,42,2,248,1,1,1,0.3963,2,0.3726
1,1,10,248,0.17,43,1,248,1,2,0,0.4716,2,0.46
1,1,10,248,0.26,44,2,248,2,2,1,0.4124,2,0.8591
1,1,10,248,0.24,45,2,248,2,1,0,0.5151,2,0.3796
1,1,10,248,0.26,46,2,248,1,1,1,0.682,2,0.4857
1,1,10,248,0.19,47,1,248,1,1,1,1.5265,2,0.3847
1,1,10,248,0.26,48,2,248,2,2,1,0.5328,2,0.3464
1,1,10,248,0.24,49,2,248,2,2,1,0.4435,2,0.4347
1,1,10,248,0.19,50,1,248,2,2,1,0.45,2,0.3427
1,1,10,248,0.24,51,2,248,2,2,1,0.508,3,0.3598
1,1,10,248,0.17,52,1,248,2,2,1,0.468,3,0.4716
1,1,10,248,0.22,53,2,248,2,2,1,0.3607,3,0.2639
1,1,10,248,0.22,54,2,248,1,1,1,0.7789,2,0.2685
1,1,10,248,0.17,55,1,248,2,2,1,0.4749,3,0.2262
1,1,10,248,0.15,56,1,248,1,2,0,1.0015,2,0.7056
1,1,10,248,0.2,57,2,248,1,1,1,0.5436,2,0.7081
1,1,10,248,0.17,58,1,248,2,2,1,0.5836,2,0.5604
1,1,10,248,0.17,59,1,248,2,2,1,0.5164,3,0.3217
1,1,10,248,0.2,60,2,248,1,2,0,0.8305,2,1.0484
1,1,10,248,0.15,61,1,248,2,2,1,0.7825,2,0.37
1,1,10,248,0.22,62,2,248,1,1,1,1.2898,1,0.3878
1,1,10,248,0.22,63,2,248,2,2,1,0.946,2,0.4957
1,1,10,248,0.15,64,1,248,2,2,1,0.77,3,0.2768
1,1,10,248,0.13,65,1,248,1,1,1,1.394,1,0.5641
1,1,10,248,0.2,66,2,248,1,1,1,0.9748,2,0.3291
1,1,10,248,0.13,67,1,248,2,2,1,0.5315,2,0.3266
1,1,10,248,0.2,68,2,248,1,2,0,0.5382,2,0.2559
1,1,10,248,0.11,69,1,248,1,1,1,0.4842,2,0.3122
1,1,10,248,0.11,70,1,248,2,2,1,0.5595,2,0.275
1,1,10,248,0.22,71,2,248,2,2,1,0.4096,2,0.1975
1,1,10,248,0.09,72,1,248,1,1,1,0.5237,2,0.3116
1,1,10,248,0.09,73,1,248,2,2,1,0.5976,3,0.4165
1,1,10,248,0.22,74,2,248,1,1,1,0.6158,3,0.2837
1,1,10,248,0.09,75,1,248,2,2,1,0.5571,2,0.2867
1,1,10,248,0.09,76,1,248,2,1,0,0.6612,2,0.2241
1,1,10,248,0.09,77,1,248,1,1,1,0.6039,2,0.2941
1,1,10,248,0.09,78,1,248,1,1,1,0.6586,2,0.2041
1,1,10,248,0.09,79,1,248,1,1,1,0.5853,2,0.3894
1,1,10,248,0.09,80,1,248,2,2,1,1.1008,2,0.1716
1,1,10,248,0.09,81,1,248,1,1,1,0.6909,2,0.3106
1,1,10,248,0.09,82,1,248,1,1,1,0.373,2,0.1881
1,1,10,248,0.09,83,1,248,1,1,1,0.7603,1,0.3066
1,1,10,248,0.09,84,1,248,2,2,1,0.8084,3,0.4686
1,1,10,248,0.2,85,2,248,1,2,0,1.2951,2,0.3685
1,1,10,248,0.22,86,2,248,1,1,1,0.629,2,0.8246
1,1,10,248,0.09,87,1,248,2,1,0,1.093,2,0.4677
1,1,10,248,0.09,88,1,248,2,2,1,0.5445,2,0.502
1,1,10,248,0.09,89,1,248,2,2,1,0.6246,3,0.5177
1,1,10,248,0.22,90,2,248,2,2,1,0.6372,3,0.3043
1,1,10,248,0.09,91,1,248,2,2,1,0.53,3,0.3123
1,1,10,248,0.09,92,1,248,1,2,0,0.7307,2,0.3093
1,1,10,248,0.09,93,1,248,1,1,1,1.8828,1,0.4903
1,1,10,248,0.2,94,2,248,1,1,1,0.9014,2,0.6394
1,1,10,248,0.09,95,1,248,1,2,0,0.6101,2,0.5966
1,1,10,248,0.09,96,1,248,1,2,0,0.9882,1,0.3082
1,1,10,248,0.2,97,2,248,1,1,1,0.8509,3,0.7063
1,1,10,248,0.09,98,1,248,2,2,1,0.7184,3,0.3048
1,1,10,248,0.09,99,1,248,1,1,1,0.8003,2,0.3065
1,1,10,248,0.09,100,1,248,1,2,0,0.5911,2,0.6182
1,1,10,248,0.09,101,1,248,2,2,1,0.4404,2,0.2783
1,1,10,248,0.18,102,2,248,1,1,1,0.4231,2,0.2443
1,1,10,248,0.18,103,2,248,1,1,1,0.7099,2,0.1361
1,1,10,248,0.18,104,2,248,1,2,0,0.4938,2,0.5731
1,1,10,248,0.18,105,2,248,1,1,1,0.5085,2,0.17
1,1,10,248,0.09,106,1,248,2,2,1,0.4433,0,0
1,1,10,248,0.18,107,2,248,1,2,0,0.4754,2,0.3731
1,1,10,248,0.09,108,1,248,2,1,0,0.5634,2,0.4078
1,1,10,248,0.18,109,2,248,2,2,1,0.4389,2,0.4868
1,1,10,248,0.18,110,2,248,2,2,1,0.3315,3,0.5709
1,1,10,248,0.09,111,1,248,2,2,1,0.4489,3,0.2768
1,1,10,248,0.09,112,1,248,1,2,0,0.5584,3,0.2767
1,1,10,248,0.09,113,1,248,1,1,1,0.5523,2,0.3176
1,1,10,248,0.18,114,2,248,1,1,1,0.5923,2,0.2059
1,1,10,248,0.18,115,2,248,1,1,1,0.5225,2,0.2664
1,1,10,248,0.18,116,2,248,1,1,1,0.4217,2,0.1785
1,1,10,248,0.09,117,1,248,1,1,1,0.8238,1,0.2725
1,1,10,248,0.09,118,1,248,1,1,1,1.3666,1,0.497
1,1,10,248,0.18,119,2,248,1,1,1,0.8547,2,0.2147
1,1,10,248,0.18,120,2,248,1,1,1,0.5492,2,0.2174
1,1,10,248,0.18,121,2,248,1,1,1,0.5046,2,0.4384
1,1,10,248,0.18,122,2,248,1,2,0,0.3978,2,0.8048
1,1,10,248,0.09,123,1,248,2,1,0,0.7133,2,0.4569
1,1,10,248,0.18,124,2,248,2,2,1,0.5807,2,0.5594
1,1,10,248,0.09,125,1,248,2,2,1,0.3374,2,0.6043
1,1,10,248,0.18,126,2,248,2,2,1,0.2782,2,0.2781
1,1,10,248,0.18,127,2,248,2,2,1,0.2835,2,0.1709
1,1,10,248,0.09,128,1,248,1,2,0,0.3884,3,0.245
1,1,10,248,0.18,129,2,248,2,2,1,0.4523,3,0.186
1,1,10,248,0.09,130,1,248,1,1,1,0.6443,1,0.7772
1,1,10,248,0.18,131,2,248,2,2,1,0.7904,2,0.1506
1,1,10,248,0.18,132,2,248,2,2,1,0.395,2,0.161
1,1,10,248,0.09,133,1,248,1,1,1,0.4005,2,0.3104
1,1,10,248,0.09,134,1,248,1,1,1,0.3193,2,0.1348
1,1,10,248,0.18,135,2,248,1,1,1,0.3599,2,0.1042
1,1,10,248,0.18,136,2,248,2,2,1,0.4806,3,0.213
1,1,10,248,0.09,137,1,248,2,2,1,0.6874,3,0.0667
1,1,10,248,0.09,138,1,248,2,2,1,0.6027,2,1.0486
1,1,10,248,0.18,139,2,248,2,2,1,0.6281,2,0.0867
1,1,10,248,0.18,140,2,248,2,1,0,0.5768,2,0.1402
1,1,10,248,0.09,141,1,248,1,1,1,0.5423,2,0.0671
1,1,10,248,0.18,142,2,248,2,2,1,0.4644,2,0.099
1,1,10,248,0.18,143,2,248,1,1,1,0.5156,2,0.0943
1,1,10,248,0.09,144,1,248,1,1,1,0.6456,2,0.1532
1,1,10,248,0.18,145,2,248,1,1,1,0.5932,2,0.043
1,1,10,248,0.18,146,2,248,1,1,1,0.449,2,0.0374
1,1,10,248,0.18,147,2,248,1,1,1,0.5678,2,0.0208
1,1,10,248,0.18,148,2,248,2,1,0,0.5859,2,0.0194
1,1,10,248,0.18,149,2,248,2,2,1,0.8759,3,0.027
1,1,10,248,0.09,150,1,248,1,1,1,1.2506,2,0.5521
1,1,10,248,0.18,151,2,248,2,2,1,0.742,2,0.3538
1,1,10,248,0.09,152,1,248,1,1,1,0.6927,2,0.1363
1,1,10,248,0.18,153,2,248,2,1,0,0.5088,2,0.0554
1,1,10,248,0.18,154,2,248,2,1,0,0.3841,2,0.0578
1,1,10,248,0.18,155,2,248,2,2,1,0.4568,2,0.0959
1,1,10,248,0.18,156,2,248,1,1,1,0.3481,2,0.1554
1,1,10,248,0.09,157,1,248,1,1,1,0.4188,2,0.1765
1,1,10,248,0.09,158,1,248,1,1,1,0.517,2,0.0643
1,1,10,248,0.18,159,2,248,2,2,1,0.7923,3,0.0904
1,1,10,248,0.18,160,2,248,1,1,1,0.3989,3,0.1481
1,1,10,248,0.18,161,2,248,2,2,1,0.5106,3,0.5065
1,1,10,248,0.18,162,2,248,1,1,1,0.4159,3,0.1584
1,1,10,248,0.09,163,1,248,1,1,1,0.5793,2,0.064
1,1,10,248,0.18,164,2,248,2,1,0,0.5799,1,0.3515
1,1,10,248,0.09,165,1,248,1,2,0,0.5526,3,0.1261
1,1,10,248,0.18,166,2,248,1,1,1,0.3755,2,0.095
1,1,10,248,0.18,167,2,248,2,1,0,0.478,2,0.0825
1,1,10,248,0.18,168,2,248,2,2,1,0.4173,3,0.0785
1,1,10,248,0.18,169,2,248,2,2,1,0.4561,3,0.0454
1,1,10,248,0.09,170,1,248,1,1,1,0.7334,1,0.7741
1,1,10,248,0.18,171,2,248,1,1,1,0.6341,2,0.1101
1,1,10,248,0.18,172,2,248,1,1,1,0.5675,2,0.1787
1,1,10,248,0.18,173,2,248,2,1,0,0.6109,2,0.0719
1,1,10,248,0.18,174,2,248,1,1,1,0.6256,2,0.1174
1,1,10,248,0.09,175,1,248,2,2,1,0.655,2,0.4573
1,1,10,248,0.09,176,1,248,2,2,1,0.4757,2,0.1926
1,1,10,248,0.18,177,2,248,2,1,0,0.4277,2,0.1059
1,1,10,248,0.18,178,2,248,1,1,1,0.3211,2,0.1198
1,1,10,248,0.18,179,2,248,1,1,1,0.2671,2,0.091
1,1,10,248,0.09,180,1,248,1,1,1,0.3585,2,0.068
1,1,10,248,0.09,181,1,248,2,2,1,0.4965,2,0.1262
1,1,10,248,0.09,182,1,248,1,1,1,0.4333,3,0.24
1,1,10,248,0.09,183,1,248,1,1,1,0.578,2,0.1426
1,1,10,248,0.09,184,1,248,2,1,0,0.2874,2,0.0385
1,1,10,248,0.09,185,1,248,2,1,0,0.4932,2,0.4093
1,1,10,248,0.09,186,1,248,1,1,1,0.4814,2,0.0903
1,1,10,248,0.09,187,1,248,2,2,1,0.4208,2,0.1467
1,1,10,248,0.09,188,1,248,1,1,1,0.5043,2,0.1967
1,1,10,248,0.18,189,2,248,2,1,0,0.4069,2,0.0373
1,1,10,248,0.18,190,2,248,1,1,1,0.9117,1,0.7758
1,1,10,248,0.18,191,2,248,2,2,1,0.7097,3,0.1531
1,1,10,248,0.18,192,2,248,1,1,1,0.4137,3,0.573
1,1,10,248,0.18,193,2,248,2,2,1,0.6077,3,0.0905
1,1,10,248,0.09,194,1,248,1,2,0,0.4145,3,0.0614
1,1,10,248,0.18,195,2,248,2,2,1,0.5011,2,0.384
1,1,10,248,0.18,196,2,248,1,1,1,0.5398,2,0.319
1,1,10,248,0.09,197,1,248,1,1,1,0.5479,1,0.4563
1,1,10,248,0.09,198,1,248,2,2,1,0.5819,2,0.098
1,1,10,248,0.09,199,1,248,2,2,1,0.4846,2,0.106
1,1,10,248,0.18,200,2,248,1,1,1,0.3761,2,0.5554
1,1,10,248,0.18,201,2,248,2,2,1,0.4063,3,0.3254
1,1,10,248,0.18,202,2,248,1,1,1,0.3375,2,0.0459
1,1,10,248,0.18,203,2,248,1,1,1,0.3635,2,0.0734
1,1,10,248,0.09,204,1,248,2,1,0,0.3896,2,0.2509
1,1,10,248,0.18,205,2,248,2,2,1,0.3416,2,0.5483
1,1,10,248,0.18,206,2,248,2,1,0,0.6364,1,0.2883
1,1,10,248,0.09,207,1,248,2,2,1,0.5291,2,0.1515
1,1,10,248,0.09,208,1,248,2,1,0,0.5277,2,0.3576
1,1,10,248,0.18,209,2,248,2,1,0,0.3904,2,0.0907
1,1,10,248,0.09,210,1,248,1,1,1,0.5732,1,0.1709
1,1,10,248,0.18,211,2,248,2,2,1,0.6486,3,0.1182
1,1,10,248,0.09,212,1,248,1,1,1,0.5319,3,0.135
1,1,10,248,0.18,213,2,248,2,2,1,0.5146,3,0.0967
1,1,10,248,0.09,214,1,248,2,1,0,0.7247,1,1.5601
1,1,10,248,0.18,215,2,248,1,1,1,0.8202,1,0.1389
1,1,10,248,0.09,216,1,248,1,1,1,0.9209,2,0.1337
1,1,10,248,0.09,217,1,248,1,1,1,0.8082,1,0.264
1,1,10,248,0.18,218,2,248,2,2,1,0.6321,3,0.428
1,1,10,248,0.18,219,2,248,1,1,1,0.6801,3,0.1599
1,1,10,248,0.18,220,2,248,1,1,1,0.6423,2,0.3572
1,1,10,248,0.18,221,2,248,2,2,1,0.6296,2,0.1397
1,1,10,248,0.18,222,2,248,1,1,1,0.4331,2,0.1586
1,1,10,248,0.18,223,2,248,2,1,0,0.6604,1,0.1914
1,1,10,248,0.09,224,1,248,2,1,0,0.4764,2,0.4333
1,1,10,248,0.18,225,2,248,1,1,1,0.4832,2,0.5845
1,1,10,248,0.09,226,1,248,2,2,1,0.6432,2,0.278
1,1,10,248,0.18,227,2,248,1,1,1,0.5059,2,0.3931
1,1,10,248,0.09,228,1,248,2,1,0,0.3526,2,0.112
1,1,10,248,0.09,229,1,248,2,1,0,0.5373,2,0.0608
1,1,10,248,0.18,230,2,248,1,1,1,0.2994,2,0.2897
1,1,10,248,0.09,231,1,248,2,2,1,0.3333,3,0.3002
1,1,10,248,0.09,232,1,248,1,2,0,0.59,3,0.4569
1,1,10,248,0.18,233,2,248,1,1,1,0.5262,2,0.1531
1,1,10,248,0.18,234,2,248,1,1,1,0.5261,2,0.0748
1,1,10,248,0.09,235,1,248,2,2,1,0.8176,2,0.2359
1,1,10,248,0.09,236,1,248,1,2,0,0.4657,2,0.1516
1,1,10,248,0.09,237,1,248,2,2,1,0.3236,2,0.1377
1,1,10,248,0.09,238,1,248,1,1,1,0.5083,2,0.1515
1,1,10,248,0.18,239,2,248,2,2,1,0.7163,2,0.2741
1,1,10,248,0.18,240,2,248,1,1,1,0.4637,2,0.517
1,2,10,248,0.24,1,2,248,1,2,0,0.9052,2,1.0445
1,2,10,248,0.26,2,2,248,2,2,1,0.5297,3,0.5001
1,2,10,248,0.13,3,1,248,2,2,1,0.4644,3,0.3839
1,2,10,248,0.24,4,2,248,2,2,1,0.5679,2,0.6844
1,2,10,248,0.11,5,1,248,1,1,1,0.6546,2,0.3864
1,2,10,248,0.24,6,2,248,2,2,1,0.4127,3,0.5648
1,2,10,248,0.09,7,1,248,2,2,1,0.3515,3,0.2982
1,2,10,248,0.07,8,1,248,2,2,1,0.4474,3,0.5064
1,2,10,248,0.05,9,1,248,1,2,0,0.8201,2,0.7609
1,2,10,248,0.22,10,2,248,2,2,1,0.415,3,0.6
1,2,10,248,0.22,11,2,248,2,2,1,0.3842,3,0.4456
1,2,10,248,0.07,12,1,248,2,2,1,0.3297,3,0.311
1,2,10,248,0.07,13,1,248,2,2,1,0.4737,3,0.127
1,2,10,248,0.05,14,1,248,1,0,0,0,1,1.3573
1,2,10,248,0.2,15,2,248,1,1,1,1.0232,2,0.1737
1,2,10,248,0.07,16,1,248,1,1,1,0.5205,2,0.1315
1,2,10,248,0.2,17,2,248,1,1,1,0.5525,2,0.6509
1,2,10,248,0.07,18,1,248,2,1,0,0.9133,2,0.2174
1,2,10,248,0.09,19,1,248,1,1,1,0.51,2,0.0586
1,2,10,248,0.09,20,1,248,1,2,0,0.8014,2,0.1255
1,2,10,248,0.18,21,2,248,1,1,1,0.486,2,0.0677
1,2,10,248,0.18,22,2,248,1,1,1,0.5534,2,0.0773
1,2,10,248,0.11,23,1,248,2,1,0,0.6355,3,0.1255
1,2,10,248,0.16,24,2,248,1,1,1,0.6308,3,0.6344
1,2,10,248,0.16,25,2,248,2,2,1,0.6228,3,0.0494
1,2,10,248,0.13,26,1,248,1,1,1,0.4937,2,0.0765
1,2,10,248,0.13,27,1,248,2,2,1,0.801,3,0.1283
1,2,10,248,0.14,28,2,248,2,2,1,0.5977,2,0.3352
1,2,10,248,0.14,29,2,248,2,2,1,0.6024,2,0.2469
1,2,10,248,0.12,30,2,248,2,1,0,0.8344,2,1.3222
1,2,10,248,0.14,31,2,248,2,2,1,0.6786,2,0.0794
1,2,10,248,0.11,32,1,248,2,2,1,0.7072,2,0.0552
1,2,10,248,0.14,33,2,248,1,1,1,0.3186,2,0.054
1,2,10,248,0.12,34,2,248,1,2,0,0.426,2,0.072
1,2,10,248,0.14,35,2,248,2,2,1,0.5447,2,0.231
1,2,10,248,0.11,36,1,248,1,1,1,0.6043,1,0.4713
1,2,10,248,0.09,37,1,248,1,1,1,0.5721,2,0.4097
1,2,10,248,0.14,38,2,248,2,2,1,0.7343,3,0.1358
1,2,10,248,0.09,39,1,248,2,1,0,0.6609,2,0.8287
1,2,10,248,0.11,40,1,248,2,1,0,0.4669,2,0.0419
1,2,10,248,0.12,41,2,248,1,1,1,0.573,2,0.3775
1,2,10,248,0.12,42,2,248,1,1,1,0.5603,2,0.1156
1,2,10,248,0.13,43,1,248,2,2,1,0.4803,2,0.2605
1,2,10,248,0.1,44,2,248,1,2,0,0.4936,2,0.1217
1,2,10,248,0.12,45,2,248,1,2,0,0.3977,2,0.0843
1,2,10,248,0.14,46,2,248,1,2,0,0.4844,2,0.0544
1,2,10,248,0.16,47,2,248,1,1,1,0.4897,2,0.0202
1,2,10,248,0.16,48,2,248,1,2,0,0.6392,2,0.0806
1,2,10,248,0.13,49,1,248,2,2,1,0.5099,2,0.0422
1,2,10,248,0.18,50,2,248,1,2,0,0.5613,2,0.0856
1,2,10,248,0.2,51,2,248,2,2,1,0.4653,2,0.1034
1,2,10,248,0.2,52,2,248,2,2,1,0.5007,2,0.0492
1,2,10,248,0.11,53,1,248,2,2,1,0.6001,2,0.2926
1,2,10,248,0.11,54,1,248,2,2,1,0.7667,2,0.3588
1,2,10,248,0.18,55,2,248,2,2,1,0.9897,2,0.1487
1,2,10,248,0.18,56,2,248,2,2,1,0.9702,3,0.1195
1,2,10,248,0.09,57,1,248,2,2,1,0.5863,3,0.0674
1,2,10,248,0.09,58,1,248,1,1,1,0.6022,1,1.2051
1,2,10,248,0.07,59,1,248,1,1,1,1.2931,2,0.3265
1,2,10,248,0.07,60,1,248,1,0,0,0,2,0.1515
1,2,10,248,0.16,61,2,248,2,2,1,0.7632,3,0.1651
1,2,10,248,0.16,62,2,248,1,2,0,0.7839,2,0.0962
1,2,10,248,0.09,63,1,248,1,2,0,0.9506,2,0.0564
1,2,10,248,0.11,64,1,248,2,2,1,0.5847,3,0.0682
1,2,10,248,0.11,65,1,248,1,1,1,0.5046,2,0.1013
1,2,10,248,0.18,66,2,248,1,1,1,0.6987,2,1.1341
1,2,10,248,0.09,67,1,248,2,2,1,0.5548,2,0.1107
1,2,10,248,0.09,68,1,248,1,1,1,0.3788,2,0.0475
1,2,10,248,0.18,69,2,248,1,1,1,0.3868,2,0.0868
1,2,10,248,0.07,70,1,248,1,2,0,0.5696,2,0.0521
1,2,10,248,0.09,71,1,248,2,1,0,0.5536,2,0.0784
1,2,10,248,0.11,72,1,248,1,1,1,0.4755,2,0.1936
1,2,10,248,0.11,73,1,248,2,1,0,0.4444,3,0.279
1,2,10,248,0.16,74,2,248,1,1,1,0.4911,3,0.599
1,2,10,248,0.16,75,2,248,2,1,0,0.9698,3,0.1363
1,2,10,248,0.18,76,2,248,1,1,1,0.5845,3,0.1019
1,2,10,248,0.18,77,2,248,1,1,1,0.4552,2,0.0936
1,2,10,248,0.18,78,2,248,2,2,1,0.3946,2,0.0813
1,2,10,248,0.18,79,2,248,1,1,1,0.5453,2,0.0217
1,2,10,248,0.13,80,1,248,2,2,1,0.6446,2,0.0385
1,2,10,248,0.13,81,1,248,2,1,0,0.3947,2,0.0649
1,2,10,248,0.18,82,2,248,1,1,1,0.5314,2,0.0385
1,2,10,248,0.18,83,2,248,2,1,0,0.5508,2,0.0757
1,2,10,248,0.18,84,2,248,1,1,1,0.4729,2,0.0612
1,2,10,248,0.18,85,2,248,1,1,1,0.4782,3,0.1149
1,2,10,248,0.18,86,2,248,2,1,0,0.5457,2,0.0552
1,2,10,248,0.18,87,2,248,2,2,1,0.5476,2,0.0572
1,2,10,248,0.18,88,2,248,1,1,1,0.5017,2,0.4668
1,2,10,248,0.15,89,1,248,2,2,1,0.5531,3,0.0452
1,2,10,248,0.15,90,1,248,2,1,0,0.5552,2,0.0961
1,2,10,248,0.15,91,1,248,1,1,1,0.5078,1,0.3288
1,2,10,248,0.18,92,2,248,2,2,1,0.5799,3,0.0628
1,2,10,248,0.18,93,2,248,2,2,1,0.3879,3,0.0431
1,2,10,248,0.18,94,2,248,2,1,0,0.4445,2,0.4258
1,2,10,248,0.15,95,1,248,2,2,1,0.5326,2,0.3142
1,2,10,248,0.15,96,1,248,2,1,0,0.3807,2,0.0345
1,2,10,248,0.18,97,2,248,2,1,0,0.3746,2,0.1561
1,2,10,248,0.18,98,2,248,1,1,1,0.4761,2,0.1159
1,2,10,248,0.15,99,1,248,2,2,1,0.5755,3,0.1571
1,2,10,248,0.15,100,1,248,2,1,0,0.9088,2,0.0356
1,2,10,248,0.15,101,1,248,2,2,1,0.5136,3,0.0942
1,2,10,248,0.18,102,2,248,2,2,1,0.9636,3,0.0819
1,2,10,248,0.15,103,1,248,1,1,1,0.7883,3,0.0699
1,2,10,248,0.15,104,1,248,1,1,1,0.5879,2,0.0567
1,2,10,248,0.15,105,1,248,1,1,1,0.3316,2,0.0427
1,2,10,248,0.15,106,1,248,2,2,1,0.3419,2,0.2126
1,2,10,248,0.18,107,2,248,1,1,1,0.3451,2,0.0395
1,2,10,248,0.18,108,2,248,1,1,1,0.2445,2,0.0693
1,2,10,248,0.18,109,2,248,1,1,1,0.4819,2,0.071
1,2,10,248,0.18,110,2,248,2,1,0,0.3113,2,0.0467
1,2,10,248,0.15,111,1,248,2,2,1,0.3545,2,0.0973
1,2,10,248,0.15,112,1,248,1,1,1,0.2035,2,0.5168
1,2,10,248,0.15,113,1,248,1,1,1,0.2648,2,0.0549
1,2,10,248,0.18,114,2,248,2,1,0,0.7262,2,0.0702
1,2,10,248,0.15,115,1,248,2,2,1,1.1054,2,0.047
1,2,10,248,0.15,116,1,248,2,1,0,1.3888,1,0.1109
1,2,10,248,0.15,117,1,248,1,1,1,1.1149,1,0.0399
1,2,10,248,0.18,118,2,248,1,1,1,1.1916,3,0.1168
1,2,10,248,0.18,119,2,248,1,2,0,0.5904,3,0.0708
1,2,10,248,0.18,120,2,248,1,1,1,0.8143,2,0.0236
1,2,10,248,0.15,121,1,248,1,1,1,0.4625,3,0.2741
1,2,10,248,0.15,122,1,248,2,1,0,0.4917,2,0.0413
1,2,10,248,0.18,123,2,248,2,2,1,0.4311,2,0.0925
1,2,10,248,0.18,124,2,248,1,1,1,0.3406,2,0.0349
1,2,10,248,0.18,125,2,248,2,1,0,0.6241,1,0.1293
1,2,10,248,0.15,126,1,248,1,1,1,0.5394,2,0.063
1,2,10,248,0.18,127,2,248,2,1,0,0.4293,2,0.1866
1,2,10,248,0.18,128,2,248,2,2,1,0.5275,2,0.0544
1,2,10,248,0.18,129,2,248,1,1,1,0.4014,2,0.0559
1,2,10,248,0.18,130,2,248,2,2,1,0.3942,2,0.1105
1,2,10,248,0.15,131,1,248,1,1,1,0.4808,1,0.3424
1,2,10,248,0.18,132,2,248,2,2,1,0.4908,3,0.1186
1,2,10,248,0.15,133,1,248,1,1,1,0.493,2,0.3631
1,2,10,248,0.15,134,1,248,2,2,1,0.405,3,0.4908
1,2,10,248,0.18,135,2,248,2,2,1,0.3957,3,0.0823
1,2,10,248,0.18,136,2,248,2,2,1,0.4343,3,0.0641
1,2,10,248,0.15,137,1,248,1,1,1,0.5371,2,0.3169
1,2,10,248,0.18,138,2,248,2,1,0,0.497,1,0.3347
1,2,10,248,0.15,139,1,248,2,2,1,0.3936,3,0.1262
1,2,10,248,0.18,140,2,248,1,1,1,0.4144,3,0.1411
1,2,10,248,0.18,141,2,248,1,1,1,0.5459,3,0.1191
1,2,10,248,0.15,142,1,248,1,2,0,0.4819,3,0.1194
1,2,10,248,0.18,143,2,248,2,2,1,0.6293,2,0.2172
1,2,10,248,0.15,144,1,248,2,2,1,0.5254,2,0.0427
1,2,10,248,0.18,145,2,248,2,1,0,0.5287,2,0.1167
1,2,10,248,0.18,146,2,248,2,2,1,0.4166,2,0.0316
1,2,10,248,0.18,147,2,248,1,2,0,0.5534,2,0.0618
1,2,10,248,0.15,148,1,248,1,2,0,0.5394,2,0.0793
1,2,10,248,0.15,149,1,248,1,1,1,0.6855,2,0.0892
1,2,10,248,0.18,150,2,248,1,1,1,0.7449,3,0.6572
1,2,10,248,0.15,151,1,248,2,2,1,0.5222,3,0.0724
1,2,10,248,0.18,152,2,248,2,2,1,0.5097,3,0.0425
1,2,10,248,0.15,153,1,248,2,2,1,0.4969,3,0.0752
1,2,10,248,0.15,154,1,248,1,1,1,0.7086,2,0.0394
1,2,10,248,0.15,155,1,248,2,2,1,0.8178,3,0.1698
1,2,10,248,0.15,156,1,248,1,2,0,0.3398,3,0.0164
1,2,10,248,0.15,157,1,248,2,2,1,0.5752,2,0.3146
1,2,10,248,0.18,158,2,248,2,2,1,0.3905,2,0.1071
1,2,10,248,0.18,159,2,248,2,1,0,0.7326,1,0.4373
1,2,10,248,0.15,160,1,248,2,2,1,0.632,2,0.0253
1,2,10,248,0.15,161,1,248,2,2,1,0.542,2,0.1461
1,2,10,248,0.18,162,2,248,2,2,1,0.2849,2,0.0535
1,2,10,248,0.15,163,1,248,2,2,1,0.5848,2,0.2767
1,2,10,248,0.18,164,2,248,1,1,1,0.4968,2,0.5121
1,2,10,248,0.18,165,2,248,1,2,0,0.5469,3,0.055
1,2,10,248,0.15,166,1,248,1,1,1,0.693,1,0.3459
1,2,10,248,0.15,167,1,248,2,2,1,0.6291,2,0.0577
1,2,10,248,0.18,168,2,248,2,2,1,0.5797,2,0.0319
1,2,10,248,0.15,169,1,248,1,2,0,0.5017,2,0.0319
1,2,10,248,0.15,170,1,248,1,2,0,0.6672,2,0.1669
1,2,10,248,0.15,171,1,248,1,1,1,0.6111,2,0.1026
1,2,10,248,0.15,172,1,248,1,1,1,0.8485,1,0.2156
1,2,10,248,0.18,173,2,248,2,2,1,0.6885,2,0.074
1,2,10,248,0.18,174,2,248,1,1,1,1.0859,1,0.1325
1,2,10,248,0.15,175,1,248,1,2,0,1.08,2,0.1452
1,2,10,248,0.18,176,2,248,1,1,1,0.738,2,0.0289
1,2,10,248,0.15,177,1,248,1,2,0,0.6854,2,0.0555
1,2,10,248,0.18,178,2,248,2,2,1,0.5701,3,0.2303
1,2,10,248,0.18,179,2,248,1,1,1,1.3641,1,1.3268
1,2,10,248,0.18,180,2,248,2,2,1,0.7395,2,0.3022
1,2,10,248,0.15,181,1,248,1,1,1,1.6036,2,0.1258
1,2,10,248,0.15,182,1,248,1,1,1,0.5683,2,1.0906
1,2,10,248,0.18,183,2,248,2,2,1,0.6084,2,0.0359
1,2,10,248,0.15,184,1,248,1,1,1,0.4804,2,1.1405
1,2,10,248,0.18,185,2,248,1,1,1,0.9698,2,0.086
1,2,10,248,0.15,186,1,248,1,1,1,0.97,2,0.058
1,2,10,248,0.15,187,1,248,2,2,1,0.6039,2,0.0705
1,2,10,248,0.18,188,2,248,1,1,1,0.8279,2,0.1592
1,2,10,248,0.15,189,1,248,2,2,1,0.5433,2,0.0688
1,2,10,248,0.18,190,2,248,1,2,0,0.5453,2,0.0704
1,2,10,248,0.18,191,2,248,1,2,0,0.5153,2,0.0452
1,2,10,248,0.15,192,1,248,1,2,0,0.5511,2,0.0457
1,2,10,248,0.15,193,1,248,1,1,1,0.4728,2,0.3034
1,2,10,248,0.15,194,1,248,2,2,1,0.3881,2,0.0577
1,2,10,248,0.18,195,2,248,2,2,1,0.5088,3,0.1216
1,2,10,248,0.18,196,2,248,2,2,1,0.6056,2,0.568
1,2,10,248,0.15,197,1,248,2,2,1,0.5063,2,0.0879
1,2,10,248,0.15,198,1,248,1,2,0,0.5563,2,0.0805
1,2,10,248,0.18,199,2,248,1,2,0,0.3665,2,0.0529
1,2,10,248,0.15,200,1,248,1,2,0,0.471,2,0.0753
1,2,10,248,0.15,201,1,248,2,2,1,0.8057,2,1.3681
1,2,10,248,0.15,202,1,248,2,1,0,0.7302,2,0.0794
1,2,10,248,0.18,203,2,248,1,2,0,0.5796,2,0.0636
1,2,10,248,0.15,204,1,248,1,1,1,0.4836,2,0.2947
1,2,10,248,0.15,205,1,248,1,1,1,0.383,2,0.0511
1,2,10,248,0.15,206,1,248,2,2,1,0.567,2,0.0215
1,2,10,248,0.18,207,2,248,1,1,1,0.3131,2,0.0484
1,2,10,248,0.18,208,2,248,2,2,1,0.6125,3,0.0867
1,2,10,248,0.18,209,2,248,2,2,1,0.4499,3,0.0239
1,2,10,248,0.15,210,1,248,2,1,0,0.6005,1,0.517
1,2,10,248,0.18,211,2,248,1,1,1,0.6474,2,0.0671
1,2,10,248,0.18,212,2,248,1,1,1,0.4526,2,0.0264
1,2,10,248,0.18,213,2,248,2,1,0,0.2834,2,0.0583
1,2,10,248,0.15,214,1,248,1,1,1,0.2807,2,0.5686
1,2,10,248,0.15,215,1,248,2,1,0,0.465,2,0.0396
1,2,10,248,0.15,216,1,248,2,1,0,0.6315,2,0.0287
1,2,10,248,0.18,217,2,248,1,1,1,0.6643,3,0.0506
1,2,10,248,0.15,218,1,248,1,1,1,0.6936,2,0.0557
1,2,10,248,0.18,219,2,248,2,2,1,0.769,2,0.0025
1,2,10,248,0.18,220,2,248,1,1,1,0.587,2,0.1513
1,2,10,248,0.18,221,2,248,2,2,1,0.7123,2,0.1905
1,2,10,248,0.15,222,1,248,1,2,0,0.4951,2,0.0437
1,2,10,248,0.18,223,2,248,2,2,1,0.6425,3,0.0701
1,2,10,248,0.15,224,1,248,2,2,1,0.5132,2,0.0788
1,2,10,248,0.15,225,1,248,2,1,0,0.2127,2,0.0458
1,2,10,248,0.15,226,1,248,1,2,0,0.4833,2,0.056
1,2,10,248,0.15,227,1,248,2,2,1,0.7767,2,0.252
1,2,10,248,0.18,228,2,248,1,1,1,0.7128,2,0.0761
1,2,10,248,0.18,229,2,248,2,2,1,0.6762,2,0.0661
1,2,10,248,0.18,230,2,248,1,1,1,0.4494,2,0.0069
1,2,10,248,0.18,231,2,248,1,1,1,0.4243,2,0.0231
1,2,10,248,0.15,232,1,248,1,1,1,0.4648,2,0.0397
1,2,10,248,0.15,233,1,248,2,1,0,0.4556,2,0.0613
1,2,10,248,0.15,234,1,248,2,1,0,0.6049,2,0.3451
1,2,10,248,0.18,235,2,248,2,2,1,0.7376,2,0.2033
1,2,10,248,0.15,236,1,248,1,2,0,0.549,2,0.0584
1,2,10,248,0.15,237,1,248,1,2,0,0.839,1,0.1246
1,2,10,248,0.15,238,1,248,1,2,0,0.6505,2,0.0227
1,2,10,248,0.15,239,1,248,1,2,0,0.6011,2,0.2611
1,2,10,248,0.18,240,2,248,1,2,0,0.5611,2,0.0529
1,1,12,338,0.17,1,1,338,2,1,0,0.6971,4,0.6412
1,1,12,338,0.19,2,1,338,1,1,1,0.5446,4,0.2829
1,1,12,338,0.17,3,1,338,2,2,1,0.956,4,0.2878
1,1,12,338,0.17,4,1,338,2,1,0,1.519,2,0.3995
1,1,12,338,0.19,5,1,338,2,1,0,0.7563,3,0.4387
1,1,12,338,0.21,6,1,338,2,1,0,0.551,3,0.4872
1,1,12,338,0.38,7,2,338,2,2,1,0.9378,3,0.5668
1,1,12,338,0.23,8,1,338,1,1,1,0.7942,3,0.4616
1,1,12,338,0.23,9,1,338,2,2,1,1.187,3,0.4172
1,1,12,338,0.21,10,1,338,2,2,1,0.8855,4,0.3203
1,1,12,338,0.36,11,2,338,2,2,1,1.0725,3,0.4085
1,1,12,338,0.34,12,2,338,1,1,1,0.4764,4,0.3134
1,1,12,338,0.21,13,1,338,1,1,1,0.6901,3,0.3758
1,1,12,338,0.32,14,2,338,2,2,1,0.7182,4,0.3892
1,1,12,338,0.3,15,2,338,1,1,1,0.943,1,0.3151
1,1,12,338,0.28,16,2,338,1,1,1,0.5032,4,0.3606
1,1,12,338,0.26,17,2,338,2,1,0,1.8262,3,0.4108
1,1,12,338,0.28,18,2,338,1,1,1,0.6448,3,1.0254
1,1,12,338,0.28,19,2,338,1,1,1,0.9097,3,0.5556
1,1,12,338,0.19,20,1,338,1,1,1,1.2301,1,0.3817
1,1,12,338,0.19,21,1,338,2,2,1,1.2437,2,0.9749
1,1,12,338,0.26,22,2,338,1,1,1,0.862,3,0.5229
1,1,12,338,0.17,23,1,338,2,1,0,0.9115,1,0.4316
1,1,12,338,0.19,24,1,338,2,2,1,0.9756,1,0.4108
1,1,12,338,0.26,25,2,338,2,1,0,0.8223,3,0.5891
1,1,12,338,0.28,26,2,338,1,1,1,0.8416,3,0.439
1,1,12,338,0.19,27,1,338,1,1,1,0.6697,3,0.5198
1,1,12,338,0.28,28,2,338,2,2,1,1.0255,1,0.3824
1,1,12,338,0.17,29,1,338,2,2,1,0.6354,1,0.4528
1,1,12,338,0.26,30,2,338,1,1,1,0.5861,2,0.5009
1,1,12,338,0.17,31,1,338,1,2,0,0.5854,1,0.5093
1,1,12,338,0.19,32,1,338,2,1,0,0.7314,1,0.4792
1,1,12,338,0.26,33,2,338,2,2,1,0.8303,2,0.5484
1,1,12,338,0.21,34,1,338,2,2,1,0.8216,2,0.4153
1,1,12,338,0.21,35,1,338,1,1,1,0.5662,1,0.6267
1,1,12,338,0.24,36,2,338,1,2,0,0.858,1,0.4818
1,1,12,338,0.19,37,1,338,1,2,0,1.2526,3,0.4501
1,1,12,338,0.26,38,2,338,2,1,0,0.71,1,0.366
1,1,12,338,0.28,39,2,338,2,1,0,1.5871,2,0.7293
1,1,12,338,0.3,40,2,338,2,2,1,0.6701,4,0.4241
1,1,12,338,0.3,41,2,338,2,2,1,0.6329,4,0.3959
1,1,12,338,0.21,42,1,338,1,0,0,0,3,0.7219
1,1,12,338,0.23,43,1,338,1,1,1,0.4441,4,0.5417
1,1,12,338,0.28,44,2,338,1,1,1,0.4899,4,0.4669
1,1,12,338,0.28,45,2,338,2,2,1,0.6456,4,0.4653
1,1,12,338,0.26,46,2,338,2,1,0,0.7644,4,0.4764
1,1,12,338,0.28,47,2,338,2,2,1,0.6775,4,0.4489
1,1,12,338,0.23,48,1,338,2,1,0,0.7974,2,0.7577
1,1,12,338,0.25,49,1,338,2,1,0,0.5481,1,0.6959
1,1,12,338,0.27,50,1,338,1,1,1,0.5456,4,0.4667
1,1,12,338,0.27,51,1,338,2,2,1,1.5435,4,0.4789
1,1,12,338,0.25,52,1,338,2,1,0,0.5494,1,0.3621
1,1,12,338,0.27,53,1,338,1,1,1,0.983,3,0.5011
1,1,12,338,0.28,54,2,338,1,2,0,1.284,4,0.4732
1,1,12,338,0.27,55,1,338,1,1,1,0.6665,1,0.452
1,1,12,338,0.3,56,2,338,2,2,1,0.6186,4,0.4208
1,1,12,338,0.25,57,1,338,2,2,1,0.4437,4,0.4729
1,1,12,338,0.3,58,2,338,2,2,1,0.4391,4,0.3971
1,1,12,338,0.25,59,1,338,2,1,0,0.527,1,0.428
1,1,12,338,0.27,60,1,338,2,1,0,0.5615,1,0.4129
1,1,12,338,0.28,61,2,338,1,1,1,0.7805,6,0
1,1,12,338,0.28,62,2,338,1,1,1,0.4979,3,2.7247
1,1,12,338,0.26,63,2,338,1,1,1,0.4851,1,0.444
1,1,12,338,0.29,64,1,338,1,1,1,0.6149,2,0.4806
1,1,12,338,0.26,65,2,338,2,2,1,0.8505,3,0.6898
1,1,12,338,0.24,66,2,338,1,1,1,0.5753,2,0.3834
1,1,12,338,0.29,67,1,338,2,2,1,1.0055,4,0.4311
1,1,12,338,0.27,68,1,338,1,2,0,0.7499,4,0.5088
1,1,12,338,0.24,69,2,338,1,1,1,0.8903,1,0.4808
1,1,12,338,0.22,70,2,338,1,2,0,1.9188,3,0.6232
1,1,12,338,0.24,71,2,338,2,1,0,0.7456,1,0.347
1,1,12,338,0.26,72,2,338,2,2,1,0.736,3,1.2122
1,1,12,338,0.26,73,2,338,1,2,0,0.6274,1,0.8782
1,1,12,338,0.29,74,1,338,2,2,1,1.1574,1,0.3006
1,1,12,338,0.28,75,2,338,2,1,0,0.8611,2,0.5471
1,1,12,338,0.29,76,1,338,1,1,1,0.4628,2,0.4138
1,1,12,338,0.27,77,1,338,1,1,1,1.6743,1,0.3189
1,1,12,338,0.27,78,1,338,2,1,0,0.4775,1,0.6577
1,1,12,338,0.3,79,2,338,1,1,1,0.6495,1,0.4462
1,1,12,338,0.3,80,2,338,2,2,1,0.7984,3,0.4722
1,1,12,338,0.3,81,2,338,1,1,1,0.6413,4,0.4609
1,1,12,338,0.27,82,1,338,2,2,1,1.5429,1,0.4735
1,1,12,338,0.3,83,2,338,2,2,1,0.749,4,0.416
1,1,12,338,0.3,84,2,338,1,1,1,0.5656,4,0.4899
1,1,12,338,0.27,85,1,338,1,1,1,0.6129,1,0.4822
1,1,12,338,0.27,86,1,338,2,2,1,0.479,4,0.5491
1,1,12,338,0.3,87,2,338,1,1,1,0.5227,4,0.473
1,1,12,338,0.27,88,1,338,1,1,1,0.5301,4,0.5032
1,1,12,338,0.3,89,2,338,1,1,1,0.4142,4,0.5132
1,1,12,338,0.3,90,2,338,1,1,1,0.597,4,0.5051
1,1,12,338,0.3,91,2,338,2,2,1,0.6641,1,0.4659
1,1,12,338,0.27,92,1,338,1,1,1,1.1378,3,0.9608
1,1,12,338,0.3,93,2,338,2,2,1,0.9728,4,0.4546
1,1,12,338,0.27,94,1,338,2,1,0,0.7947,1,0.4518
1,1,12,338,0.3,95,2,338,1,1,1,0.6088,2,0.6921
1,1,12,338,0.27,96,1,338,2,2,1,1.466,4,0.5665
1,1,12,338,0.27,97,1,338,2,0,0,0,4,0.5056
1,1,12,338,0.3,98,2,338,2,1,0,0.5619,1,0.4969
1,1,12,338,0.3,99,2,338,2,2,1,0.7054,4,0.5761
1,1,12,338,0.27,100,1,338,1,2,0,0.821,1,0.4347
1,1,12,338,0.3,101,2,338,1,2,0,0.6395,1,0.7689
1,1,12,338,0.27,102,1,338,1,2,0,0.8377,1,0.7018
1,1,12,338,0.3,103,2,338,1,1,1,0.5603,4,0.5649
1,1,12,338,0.3,104,2,338,2,2,1,0.7072,4,0.6531
1,1,12,338,0.3,105,2,338,1,1,1,0.5657,3,0.8008
1,1,12,338,0.27,106,1,338,2,1,0,0.7905,1,0.5169
1,1,12,338,0.3,107,2,338,2,2,1,0.5203,4,0.5089
1,1,12,338,0.27,108,1,338,2,2,1,0.3743,4,0.4699
1,1,12,338,0.27,109,1,338,1,1,1,0.4988,1,1.1033
1,1,12,338,0.27,110,1,338,1,1,1,0.672,3,0.8968
1,1,12,338,0.3,111,2,338,1,0,0,0,3,0.8334
1,1,12,338,0.27,112,1,338,1,1,1,0.5759,1,0.4233
1,1,12,338,0.3,113,2,338,1,2,0,0.543,1,0.6132
1,1,12,338,0.27,114,1,338,1,1,1,0.4458,4,0.5249
1,1,12,338,0.27,115,1,338,2,2,1,0.6025,4,0.4254
1,1,12,338,0.27,116,1,338,2,1,0,0.6192,1,0.4542
1,1,12,338,0.27,117,1,338,1,1,1,0.6637,2,0.6947
1,1,12,338,0.27,118,1,338,2,2,1,1.4316,3,0.8642
1,1,12,338,0.3,119,2,338,1,1,1,1.8059,4,0.632
1,1,12,338,0.3,120,2,338,1,1,1,0.3719,4,0.4681
1,1,12,338,0.27,121,1,338,1,1,1,0.8152,4,0.4664
1,1,12,338,0.3,122,2,338,1,1,1,0.9228,4,0.665
1,1,12,338,0.27,123,1,338,2,2,1,0.8995,3,0.4479
1,1,12,338,0.3,124,2,338,2,1,0,0.8597,3,0.4419
1,1,12,338,0.3,125,2,338,2,2,1,0.7112,3,2.2688
1,1,12,338,0.3,126,2,338,1,1,1,0.367,3,0.5069
1,1,12,338,0.3,127,2,338,1,1,1,0.8292,1,0.4423
1,1,12,338,0.3,128,2,338,2,2,1,0.6265,2,0.5808
1,1,12,338,0.3,129,2,338,1,1,1,0.3018,4,0.4469
1,1,12,338,0.27,130,1,338,1,1,1,0.555,4,0.4449
1,1,12,338,0.27,131,1,338,2,1,0,0.5114,1,0.3959
1,1,12,338,0.3,132,2,338,2,1,0,0.7231,1,0.405
1,1,12,338,0.3,133,2,338,1,1,1,1.2937,1,0.401
1,1,12,338,0.3,134,2,338,2,2,1,0.775,1,0.4601
1,1,12,338,0.3,135,2,338,2,2,1,1.0346,4,0.4521
1,1,12,338,0.27,136,1,338,2,2,1,0.4788,4,0.4441
1,1,12,338,0.3,137,2,338,2,2,1,1.0673,3,0.5888
1,1,12,338,0.3,138,2,338,1,2,0,0.5609,4,0.4309
1,1,12,338,0.3,139,2,338,2,2,1,0.4998,4,0.435
1,1,12,338,0.3,140,2,338,2,2,1,0.519,4,0.4349
1,1,12,338,0.27,141,1,338,1,2,0,0.6868,4,0.4542
1,1,12,338,0.3,142,2,338,1,2,0,1.4901,4,0.4007
1,1,12,338,0.3,143,2,338,2,2,1,1.7867,4,0.463
1,1,12,338,0.3,144,2,338,1,1,1,0.6206,1,0.4126
1,1,12,338,0.3,145,2,338,2,2,1,0.6381,4,0.394
1,1,12,338,0.27,146,1,338,1,1,1,0.9889,4,0.384
1,1,12,338,0.27,147,1,338,1,1,1,1.055,2,0.5719
1,1,12,338,0.27,148,1,338,1,1,1,0.6736,4,0.427
1,1,12,338,0.3,149,2,338,2,2,1,0.7184,4,0.3962
1,1,12,338,0.27,150,1,338,1,2,0,1.0373,4,1.0023
1,1,12,338,0.3,151,2,338,1,1,1,0.3887,4,0.5239
1,1,12,338,0.27,152,1,338,2,0,0,0,1,0.8592
1,1,12,338,0.27,153,1,338,1,1,1,0.9213,4,0.4059
1,1,12,338,0.3,154,2,338,2,1,0,1.085,3,0.807
1,1,12,338,0.27,155,1,338,1,1,1,1.0995,4,0.5068
1,1,12,338,0.3,156,2,338,1,1,1,0.4177,3,0.5753
1,1,12,338,0.27,157,1,338,2,1,0,0.6264,3,0.4693
1,1,12,338,0.3,158,2,338,1,2,0,1.0163,3,0.6589
1,1,12,338,0.27,159,1,338,2,2,1,0.6027,3,0.4089
1,1,12,338,0.27,160,1,338,1,2,0,0.718,3,0.4169
1,1,12,338,0.27,161,1,338,2,2,1,0.5582,4,0.3683
1,1,12,338,0.3,162,2,338,1,1,1,1.9533,4,0.4171
1,1,12,338,0.3,163,2,338,1,1,1,0.3084,4,0.407
1,1,12,338,0.27,164,1,338,1,1,1,0.3717,4,0.4041
1,1,12,338,0.3,165,2,338,2,2,1,0.7084,4,0.4123
1,1,12,338,0.27,166,1,338,2,2,1,0.5167,4,0.3933
1,1,12,338,0.27,167,1,338,1,1,1,0.37,4,0.529
1,1,12,338,0.27,168,1,338,1,1,1,0.4715,4,0.4406
1,1,12,338,0.27,169,1,338,2,2,1,0.5844,4,0.4674
1,1,12,338,0.3,170,2,338,1,1,1,0.3131,4,0.5406
1,1,12,338,0.27,171,1,338,1,1,1,0.5123,1,0.5319
1,1,12,338,0.3,172,2,338,1,1,1,1.2873,4,0.3959
1,1,12,338,0.27,173,1,338,1,1,1,0.6481,4,0.5444
1,1,12,338,0.3,174,2,338,1,1,1,0.506,4,0.4849
1,1,12,338,0.27,175,1,338,1,2,0,0.6909,1,0.3948
1,1,12,338,0.27,176,1,338,1,1,1,0.3469,4,0.4567
1,1,12,338,0.3,177,2,338,2,2,1,0.9914,1,0.3699
1,1,12,338,0.27,178,1,338,1,2,0,0.4307,1,0.4797
1,1,12,338,0.3,179,2,338,1,2,0,1.5132,4,0.4008
1,1,12,338,0.27,180,1,338,1,0,0,0,4,0.5727
1,1,12,338,0.27,181,1,338,2,2,1,0.6906,4,0.5969
1,1,12,338,0.27,182,1,338,1,1,1,0.9324,4,0.5359
1,1,12,338,0.27,183,1,338,2,2,1,0.5135,1,0.486
1,1,12,338,0.27,184,1,338,1,2,0,0.4685,1,0.4694
1,1,12,338,0.27,185,1,338,2,2,1,0.509,4,0.4587
1,1,12,338,0.3,186,2,338,2,2,1,0.4865,4,0.5393
1,1,12,338,0.27,187,1,338,2,2,1,0.4521,4,0.5145
1,1,12,338,0.3,188,2,338,2,2,1,1.9179,4,0.6739
1,1,12,338,0.3,189,2,338,1,1,1,0.4061,4,0.4761
1,1,12,338,0.3,190,2,338,2,2,1,0.4594,4,0.4241
1,1,12,338,0.3,191,2,338,2,2,1,0.4665,4,0.4501
1,1,12,338,0.3,192,2,338,1,1,1,0.4536,4,0.5009
1,1,12,338,0.27,193,1,338,2,2,1,0.6566,4,0.4031
1,1,12,338,0.27,194,1,338,1,1,1,0.3231,4,0.5168
1,1,12,338,0.27,195,1,338,1,2,0,1.2963,4,0.4918
1,1,12,338,0.3,196,2,338,1,1,1,0.5629,1,0.5695
1,1,12,338,0.3,197,2,338,2,2,1,1.859,1,0.3628
1,1,12,338,0.3,198,2,338,2,2,1,0.3854,4,0.4262
1,1,12,338,0.27,199,1,338,2,2,1,0.2743,4,0.5173
1,1,12,338,0.27,200,1,338,2,2,1,0.593,4,0.6319
1,1,12,338,0.27,201,1,338,2,2,1,0.4743,4,0.473
1,1,12,338,0.27,202,1,338,1,1,1,0.4992,4,0.4142
1,1,12,338,0.3,203,2,338,2,1,0,1.6933,4,0.4368
1,1,12,338,0.27,204,1,338,2,2,1,0.5817,4,0.4891
1,1,12,338,0.3,205,2,338,1,1,1,0.3622,4,0.5171
1,1,12,338,0.3,206,2,338,1,1,1,0.7552,1,0.9291
1,1,12,338,0.3,207,2,338,1,1,1,0.4704,4,0.5978
1,1,12,338,0.27,208,1,338,1,1,1,0.3572,4,0.5489
1,1,12,338,0.3,209,2,338,2,1,0,0.6101,2,0.5605
1,1,12,338,0.3,210,2,338,2,2,1,1.5602,4,0.3878
1,1,12,338,0.27,211,1,338,1,1,1,0.826,4,0.5188
1,1,12,338,0.3,212,2,338,1,1,1,0.7389,3,0.5197
1,1,12,338,0.27,213,1,338,1,1,1,1.6717,3,0.5511
1,1,12,338,0.27,214,1,338,2,2,1,0.7983,4,0.4623
1,1,12,338,0.3,215,2,338,2,2,1,0.5112,4,0.3819
1,1,12,338,0.3,216,2,338,1,2,0,1.1796,1,0.4115
1,1,12,338,0.27,217,1,338,2,2,1,0.7215,4,0.4041
1,1,12,338,0.27,218,1,338,2,2,1,0.3927,4,0.4241
1,1,12,338,0.27,219,1,338,1,2,0,0.3645,4,0.392
1,1,12,338,0.3,220,2,338,2,1,0,0.365,1,0.4292
1,1,12,338,0.27,221,1,338,2,2,1,0.8563,4,0.8711
1,1,12,338,0.27,222,1,338,1,0,0,0,1,1.854
1,1,12,338,0.27,223,1,338,1,1,1,0.6049,1,0.367
1,1,12,338,0.27,224,1,338,2,1,0,0.4046,1,0.4636
1,1,12,338,0.27,225,1,338,1,1,1,0.6079,2,0.7858
1,1,12,338,0.27,226,1,338,2,2,1,0.4724,4,0.429
1,1,12,338,0.3,227,2,338,2,2,1,1.1902,1,0.5481
1,1,12,338,0.3,228,2,338,1,2,0,0.5908,1,0.5831
1,1,12,338,0.27,229,1,338,2,1,0,0.6876,1,0.4212
1,1,12,338,0.3,230,2,338,2,1,0,1.0687,2,0.4954
1,1,12,338,0.3,231,2,338,2,2,1,1.3492,2,0.5272
1,1,12,338,0.3,232,2,338,2,2,1,1.3217,2,0.4897
1,1,12,338,0.27,233,1,338,1,1,1,0.4963,3,0.7071
1,1,12,338,0.27,234,1,338,1,1,1,0.9006,3,0.4592
1,1,12,338,0.3,235,2,338,1,1,1,0.8252,3,0.8436
1,1,12,338,0.27,236,1,338,2,2,1,0.7129,3,0.4977
1,1,12,338,0.27,237,1,338,2,2,1,0.6169,4,0.395
1,1,12,338,0.3,238,2,338,1,1,1,0.7453,4,0.401
1,1,12,338,0.3,239,2,338,2,1,0,0.3947,4,0.4569
1,1,12,338,0.3,240,2,338,2,0,0,0,1,0.4969
1,2,12,338,0.17,1,1,338,2,2,1,1.1349,4,0.3718
1,2,12,338,0.15,2,1,338,2,2,1,0.4839,4,0.3857
1,2,12,338,0.38,3,2,338,1,1,1,0.3879,4,0.4274
1,2,12,338,0.13,4,1,338,2,1,0,0.6393,1,0.4323
1,2,12,338,0.15,5,1,338,2,1,0,0.4624,1,0.9415
1,2,12,338,0.17,6,1,338,2,2,1,0.845,3,0.4768
1,2,12,338,0.36,7,2,338,2,2,1,0.5211,4,0.4491
1,2,12,338,0.34,8,2,338,1,1,1,0.4308,4,0.4293
1,2,12,338,0.17,9,1,338,2,1,0,0.7092,3,0.5947
1,2,12,338,0.32,10,2,338,1,1,1,1.385,3,0.4044
1,2,12,338,0.3,11,2,338,1,1,1,0.9332,3,1.4031
1,2,12,338,0.19,12,1,338,1,1,1,0.3577,4,0.3879
1,2,12,338,0.19,13,1,338,1,1,1,0.7971,1,0.3823
1,2,12,338,0.17,14,1,338,1,2,0,0.663,1,0.7476
1,2,12,338,0.19,15,1,338,1,1,1,1.4208,4,0.374
1,2,12,338,0.19,16,1,338,2,1,0,0.5725,3,0.4131
1,2,12,338,0.28,17,2,338,1,1,1,0.4644,3,0.4606
1,2,12,338,0.26,18,2,338,2,1,0,1.2181,1,0.4821
1,2,12,338,0.21,19,1,338,2,1,0,1.1288,2,0.3692
1,2,12,338,0.28,20,2,338,2,2,1,1.4221,4,0.3937
1,2,12,338,0.23,21,1,338,2,2,1,0.7782,4,0.3871
1,2,12,338,0.23,22,1,338,2,1,0,0.9849,1,0.3438
1,2,12,338,0.25,23,1,338,2,2,1,0.6717,4,0.4213
1,2,12,338,0.25,24,1,338,2,1,0,1.3018,1,0.3874
1,2,12,338,0.28,25,2,338,2,1,0,0.6998,3,0.6035
1,2,12,338,0.3,26,2,338,1,1,1,0.2719,4,0.3496
1,2,12,338,0.27,27,1,338,1,1,1,0.7584,3,0.4602
1,2,12,338,0.27,28,1,338,2,2,1,0.6029,2,0.6699
1,2,12,338,0.25,29,1,338,1,1,1,0.3345,2,0.4578
1,2,12,338,0.3,30,2,338,2,1,0,1.0392,2,0.3865
1,2,12,338,0.32,31,2,338,1,1,1,0.7666,2,0.467
1,2,12,338,0.32,32,2,338,2,2,1,0.6734,4,0.4358
1,2,12,338,0.25,33,1,338,1,2,0,1.6166,2,0.3992
1,2,12,338,0.3,34,2,338,1,1,1,1.4537,3,0.4518
1,2,12,338,0.3,35,2,338,2,2,1,0.6273,4,0.4626
1,2,12,338,0.27,36,1,338,1,1,1,0.5099,4,0.4119
1,2,12,338,0.28,37,2,338,1,1,1,0.3752,4,0.3838
1,2,12,338,0.27,38,1,338,2,1,0,0.9771,1,0.3521
1,2,12,338,0.29,39,1,338,2,2,1,0.5977,4,0.3863
1,2,12,338,0.29,40,1,338,1,2,0,0.5283,4,0.4679
1,2,12,338,0.28,41,2,338,1,1,1,0.5228,4,0.4412
1,2,12,338,0.31,42,1,338,1,1,1,0.9124,1,0.2982
1,2,12,338,0.26,43,2,338,1,1,1,0.7124,3,0.6389
1,2,12,338,0.26,44,2,338,2,2,1,0.8004,3,0.4071
1,2,12,338,0.24,45,2,338,2,2,1,0.6852,1,0.6869
1,2,12,338,0.24,46,2,338,2,2,1,0.9212,2,0.6542
1,2,12,338,0.22,47,2,338,1,1,1,0.7819,2,0.5831
1,2,12,338,0.22,48,2,338,1,2,0,0.7926,1,0.7265
1,2,12,338,0.31,49,1,338,2,2,1,0.9155,2,0.5199
1,2,12,338,0.29,50,1,338,2,2,1,0.5405,3,0.5934
1,2,12,338,0.24,51,2,338,2,1,0,0.757,1,0.412
1,2,12,338,0.29,52,1,338,2,1,0,0.9467,1,0.5872
1,2,12,338,0.26,53,2,338,1,1,1,0.8585,2,0.554
1,2,12,338,0.26,54,2,338,2,2,1,0.8724,2,0.5004
1,2,12,338,0.24,55,2,338,2,2,1,0.8179,4,0.3588
1,2,12,338,0.31,56,1,338,1,1,1,0.4545,4,0.3079
1,2,12,338,0.24,57,2,338,1,2,0,0.9816,4,0.3159
1,2,12,338,0.31,58,1,338,1,1,1,0.7078,4,0.2861
1,2,12,338,0.26,59,2,338,2,1,0,0.8026,1,0.3697
1,2,12,338,0.28,60,2,338,1,1,1,0.4671,3,0.3947
1,2,12,338,0.29,61,1,338,2,0,0,0,3,0.8329
1,2,12,338,0.28,62,2,338,2,2,1,0.9959,3,0.3838
1,2,12,338,0.26,63,2,338,2,1,0,0.4384,1,0.2837
1,2,12,338,0.31,64,1,338,1,1,1,0.278,3,0.4643
1,2,12,338,0.31,65,1,338,1,1,1,1.1473,2,0.4849
1,2,12,338,0.28,66,2,338,2,1,0,0.4505,1,1.2734
1,2,12,338,0.3,67,2,338,1,1,1,0.7033,3,0.4409
1,2,12,338,0.29,68,1,338,2,1,0,1.1048,1,0.259
1,2,12,338,0.3,69,2,338,2,0,0,0,2,1.3117
1,2,12,338,0.31,70,1,338,1,1,1,0.5069,3,0.466
1,2,12,338,0.31,71,1,338,2,1,0,0.5648,1,0.2933
1,2,12,338,0.33,72,1,338,1,1,1,0.4653,3,0.3789
1,2,12,338,0.32,73,2,338,1,1,1,0.4185,4,0.2818
1,2,12,338,0.33,74,1,338,1,2,0,0.877,1,0.2827
1,2,12,338,0.35,75,1,338,1,1,1,0.6291,4,0.4111
1,2,12,338,0.35,76,1,338,1,1,1,0.5993,4,0.3057
1,2,12,338,0.35,77,1,338,1,1,1,0.7732,1,0.3509
1,2,12,338,0.35,78,1,338,1,2,0,0.7235,1,0.3011
1,2,12,338,0.35,79,1,338,1,1,1,0.7435,1,0.3372
1,2,12,338,0.35,80,1,338,2,2,1,0.5929,4,0.3079
1,2,12,338,0.35,81,1,338,2,1,0,1.5897,3,0.4659
1,2,12,338,0.32,82,2,338,1,1,1,0.5578,4,0.3323
1,2,12,338,0.35,83,1,338,1,1,1,0.6945,4,0.3641
1,2,12,338,0.3,84,2,338,2,2,1,0.9384,3,0.4498
1,2,12,338,0.35,85,1,338,1,2,0,0.9531,1,0.3238
1,2,12,338,0.3,86,2,338,2,2,1,0.6215,4,0.3985
1,2,12,338,0.28,87,2,338,1,1,1,0.8521,1,0.3703
1,2,12,338,0.28,88,2,338,1,1,1,1.178,3,0.4986
1,2,12,338,0.28,89,2,338,2,2,1,0.9138,4,0.3702
1,2,12,338,0.35,90,1,338,1,1,1,0.4201,4,0.374
1,2,12,338,0.35,91,1,338,1,1,1,0.2407,4,0.395
1,2,12,338,0.35,92,1,338,2,2,1,0.4971,4,0.336
1,2,12,338,0.35,93,1,338,2,2,1,0.5922,4,0.3848
1,2,12,338,0.28,94,2,338,2,2,1,0.4174,4,0.3609
1,2,12,338,0.28,95,2,338,1,1,1,0.3115,4,0.3799
1,2,12,338,0.35,96,1,338,2,1,0,0.6795,4,0.3261
1,2,12,338,0.35,97,1,338,2,2,1,0.4409,4,0.4254
1,2,12,338,0.28,98,2,338,2,2,1,0.4248,4,0.3802
1,2,12,338,0.28,99,2,338,1,1,1,0.3387,4,0.3684
1,2,12,338,0.35,100,1,338,1,1,1,0.3373,4,0.3555
1,2,12,338,0.35,101,1,338,2,2,1,0.4311,4,0.3609
1,2,12,338,0.35,102,1,338,2,2,1,0.3866,4,0.4084
1,2,12,338,0.28,103,2,338,1,1,1,0.3588,4,0.4081
1,2,12,338,0.28,104,2,338,1,2,0,0.7181,1,0.3232
1,2,12,338,0.28,105,2,338,1,1,1,0.7891,1,0.5101
1,2,12,338,0.28,106,2,338,1,1,1,0.8329,2,0.3965
1,2,12,338,0.35,107,1,338,2,2,1,0.428,4,0.333
1,2,12,338,0.28,108,2,338,2,1,0,0.5551,3,0.4256
1,2,12,338,0.28,109,2,338,2,1,0,0.5972,2,0.3897
1,2,12,338,0.35,110,1,338,2,2,1,0.5768,4,0.341
1,2,12,338,0.35,111,1,338,2,2,1,0.3731,4,0.349
1,2,12,338,0.28,112,2,338,1,1,1,0.5094,4,0.412
1,2,12,338,0.28,113,2,338,1,2,0,0.9631,1,0.3343
1,2,12,338,0.35,114,1,338,2,2,1,0.4879,4,0.3573
1,2,12,338,0.35,115,1,338,1,1,1,0.5283,4,0.3431
1,2,12,338,0.28,116,2,338,2,1,0,0.7001,1,0.3383
1,2,12,338,0.28,117,2,338,2,1,0,0.6291,1,0.5255
1,2,12,338,0.35,118,1,338,1,2,0,0.7687,1,0.3902
1,2,12,338,0.35,119,1,338,2,2,1,0.5089,4,0.3379
1,2,12,338,0.28,120,2,338,1,1,1,0.6106,4,0.325
1,2,12,338,0.28,121,2,338,1,1,1,0.9368,4,0.36
1,2,12,338,0.28,122,2,338,1,1,1,0.6161,4,0.4006
1,2,12,338,0.28,123,2,338,2,2,1,0.6316,4,0.3371
1,2,12,338,0.35,124,1,338,1,1,1,0.4246,4,0.4061
1,2,12,338,0.35,125,1,338,2,2,1,0.5201,4,0.3385
1,2,12,338,0.35,126,1,338,1,1,1,1.4453,1,0.2691
1,2,12,338,0.28,127,2,338,1,1,1,0.672,1,0.317
1,2,12,338,0.35,128,1,338,2,2,1,0.4921,4,0.3306
1,2,12,338,0.28,129,2,338,1,1,1,0.5083,1,0.3048
1,2,12,338,0.35,130,1,338,2,2,1,1.0016,4,0.3722
1,2,12,338,0.35,131,1,338,1,1,1,0.3506,4,0.3668
1,2,12,338,0.35,132,1,338,1,1,1,0.4235,4,0.3626
1,2,12,338,0.35,133,1,338,2,2,1,0.5399,4,0.3441
1,2,12,338,0.28,134,2,338,2,2,1,0.3657,4,0.4294
1,2,12,338,0.28,135,2,338,1,1,1,0.5438,1,0.3515
1,2,12,338,0.28,136,2,338,2,2,1,0.3035,4,0.3847
1,2,12,338,0.28,137,2,338,2,2,1,0.3515,4,0.3772
1,2,12,338,0.35,138,1,338,1,1,1,0.464,3,0.6612
1,2,12,338,0.35,139,1,338,1,1,1,0.4712,2,0.381
1,2,12,338,0.28,140,2,338,1,2,0,0.2925,4,0.4317
1,2,12,338,0.35,141,1,338,2,2,1,0.3751,4,0.3559
1,2,12,338,0.28,142,2,338,2,2,1,0.402,4,0.4012
1,2,12,338,0.35,143,1,338,2,2,1,0.348,4,0.3837
1,2,12,338,0.35,144,1,338,2,2,1,0.2934,4,0.36
1,2,12,338,0.28,145,2,338,2,2,1,0.2653,4,0.3788
1,2,12,338,0.28,146,2,338,2,2,1,0.3549,4,0.3911
1,2,12,338,0.28,147,2,338,2,2,1,0.4143,4,0.3916
1,2,12,338,0.35,148,1,338,1,2,0,0.1755,4,0.9366
1,2,12,338,0.35,149,1,338,1,1,1,0.5379,4,0.334
1,2,12,338,0.35,150,1,338,1,1,1,0.3343,4,0.3927
1,2,12,338,0.35,151,1,338,1,1,1,0.611,4,0.3974
1,2,12,338,0.28,152,2,338,1,2,0,0.6904,1,0.9025
1,2,12,338,0.35,153,1,338,2,2,1,0.6951,4,0.3383
1,2,12,338,0.35,154,1,338,2,1,0,0.9702,1,0.3402
1,2,12,338,0.28,155,2,338,2,1,0,0.7894,1,0.3415
1,2,12,338,0.28,156,2,338,1,2,0,1.307,1,0.3247
1,2,12,338,0.28,157,2,338,1,1,1,1.0127,3,0.8328
1,2,12,338,0.35,158,1,338,2,2,1,1.078,3,0.393
1,2,12,338,0.35,159,1,338,2,2,1,0.5922,3,0.2928
1,2,12,338,0.35,160,1,338,1,1,1,0.3244,2,0.4143
1,2,12,338,0.28,161,2,338,2,2,1,0.7454,4,0.3862
1,2,12,338,0.28,162,2,338,2,2,1,0.819,4,0.3076
1,2,12,338,0.35,163,1,338,1,1,1,0.4041,4,0.365
1,2,12,338,0.35,164,1,338,2,2,1,0.5194,4,0.3543
1,2,12,338,0.28,165,2,338,1,1,1,0.3854,4,0.2988
1,2,12,338,0.28,166,2,338,2,2,1,0.3871,4,0.3658
1,2,12,338,0.28,167,2,338,2,2,1,0.4745,4,0.3962
1,2,12,338,0.28,168,2,338,2,2,1,0.7044,2,0.6136
1,2,12,338,0.35,169,1,338,1,2,0,0.6117,2,0.4029
1,2,12,338,0.28,170,2,338,2,2,1,0.4387,3,0.4378
1,2,12,338,0.28,171,2,338,2,1,0,0.5054,3,0.678
1,2,12,338,0.35,172,1,338,2,2,1,0.4374,3,0.3893
1,2,12,338,0.28,173,2,338,2,0,0,0,3,0.6702
1,2,12,338,0.35,174,1,338,2,1,0,0.5923,1,0.5207
1,2,12,338,0.28,175,2,338,1,1,1,0.6309,1,0.3602
1,2,12,338,0.35,176,1,338,2,2,1,1.2966,1,0.3687
1,2,12,338,0.35,177,1,338,1,1,1,0.8537,2,0.9726
1,2,12,338,0.28,178,2,338,2,2,1,0.9684,2,0.3189
1,2,12,338,0.35,179,1,338,2,2,1,0.5509,3,0.3879
1,2,12,338,0.28,180,2,338,2,2,1,0.5047,3,0.4149
1,2,12,338,0.28,181,2,338,2,2,1,0.5306,2,0.6147
1,2,12,338,0.28,182,2,338,1,1,1,1.0755,1,0.5118
1,2,12,338,0.35,183,1,338,1,2,0,0.364,4,0.3831
1,2,12,338,0.28,184,2,338,1,1,1,0.8572,2,1.3336
1,2,12,338,0.28,185,2,338,2,2,1,0.9811,4,0.3976
1,2,12,338,0.35,186,1,338,2,2,1,0.4435,4,0.4417
1,2,12,338,0.28,187,2,338,2,1,0,1.2044,1,0.9239
1,2,12,338,0.35,188,1,338,2,2,1,0.8506,1,0.4038
1,2,12,338,0.28,189,2,338,1,1,1,0.9558,2,0.6308
1,2,12,338,0.35,190,1,338,1,1,1,1.5334,2,0.4241
1,2,12,338,0.35,191,1,338,2,2,1,1.3446,3,0.6301
1,2,12,338,0.35,192,1,338,2,2,1,0.5112,4,0.4059
1,2,12,338,0.28,193,2,338,2,2,1,1.1906,1,0.294
1,2,12,338,0.35,194,1,338,1,2,0,0.7556,2,0.3719
1,2,12,338,0.28,195,2,338,1,2,0,0.6532,2,0.2949
1,2,12,338,0.28,196,2,338,2,2,1,0.9852,4,0.3608
1,2,12,338,0.35,197,1,338,1,2,0,0.8791,2,0.4431
1,2,12,338,0.28,198,2,338,2,2,1,0.5434,4,0.341
1,2,12,338,0.35,199,1,338,1,1,1,0.8068,4,0.2978
1,2,12,338,0.28,200,2,338,1,1,1,0.3586,4,0.326
1,2,12,338,0.35,201,1,338,1,1,1,0.7982,4,0.3819
1,2,12,338,0.28,202,2,338,1,1,1,1.2605,4,0.3261
1,2,12,338,0.35,203,1,338,1,1,1,1.0541,2,0.4693
1,2,12,338,0.35,204,1,338,2,2,1,0.5631,3,0.3101
1,2,12,338,0.35,205,1,338,2,2,1,0.5073,3,0.3962
1,2,12,338,0.28,206,2,338,2,2,1,0.6387,3,0.2962
1,2,12,338,0.28,207,2,338,2,2,1,0.6168,3,0.3231
1,2,12,338,0.28,208,2,338,1,2,0,0.4486,4,0.4215
1,2,12,338,0.35,209,1,338,2,2,1,0.424,4,0.3731
1,2,12,338,0.28,210,2,338,2,2,1,0.4103,4,0.3867
1,2,12,338,0.35,211,1,338,1,2,0,0.5676,1,0.7563
1,2,12,338,0.28,212,2,338,2,2,1,0.4506,4,0.3123
1,2,12,338,0.35,213,1,338,1,1,1,0.4519,4,0.3083
1,2,12,338,0.35,214,1,338,2,2,1,0.4612,4,0.3083
1,2,12,338,0.28,215,2,338,2,1,0,0.2769,4,0.3705
1,2,12,338,0.28,216,2,338,1,1,1,0.4185,4,0.3731
1,2,12,338,0.35,217,1,338,1,1,1,0.597,4,0.3389
1,2,12,338,0.28,218,2,338,1,1,1,0.4819,2,0.4319
1,2,12,338,0.28,219,2,338,1,1,1,0.3814,3,0.3462
1,2,12,338,0.35,220,1,338,2,2,1,0.5508,4,0.3284
1,2,12,338,0.28,221,2,338,1,1,1,0.3439,1,0.3109
1,2,12,338,0.35,222,1,338,1,1,1,0.382,3,0.3056
1,2,12,338,0.28,223,2,338,2,2,1,0.4281,4,0.4281
1,2,12,338,0.28,224,2,338,2,1,0,0.6549,2,0.6507
1,2,12,338,0.35,225,1,338,1,1,1,0.5673,2,0.2851
1,2,12,338,0.28,226,2,338,1,1,1,0.7107,3,0.3245
1,2,12,338,0.28,227,2,338,1,1,1,0.5975,3,0.2745
1,2,12,338,0.28,228,2,338,1,1,1,0.2566,3,0.3183
1,2,12,338,0.28,229,2,338,1,1,1,0.5003,1,0.2126
1,2,12,338,0.35,230,1,338,1,1,1,0.6026,4,0.351
1,2,12,338,0.35,231,1,338,2,2,1,0.4881,4,0.2712
1,2,12,338,0.28,232,2,338,1,1,1,0.3268,4,0.2694
1,2,12,338,0.28,233,2,338,1,1,1,0.3405,4,0.1837
1,2,12,338,0.28,234,2,338,2,1,0,0.7194,1,0.2801
1,2,12,338,0.28,235,2,338,1,1,1,0.4562,1,0.2461
1,2,12,338,0.28,236,2,338,1,0,0,0,1,2.4749
1,2,12,338,0.35,237,1,338,1,1,1,0.9022,2,0.612
1,2,12,338,0.35,238,1,338,1,1,1,0.2722,4,0.6423
1,2,12,338,0.35,239,1,338,1,1,1,0.2787,4,0.3034
1,2,12,338,0.35,240,1,338,1,1,1,0.3258,4,0.3866
1,1,14,113,0.17,1,1,113,1,1,1,0.9649,2,0.5616
1,1,14,113,0.38,2,2,113,2,2,1,0.4896,3,0.4024
1,1,14,113,0.36,3,2,113,1,1,1,0.8564,2,0.4737
1,1,14,113,0.34,4,2,113,2,1,0,1.0343,2,0.4665
1,1,14,113,0.36,5,2,113,2,2,1,0.7067,2,0.749
1,1,14,113,0.15,6,1,113,2,1,0,0.738,3,0.6012
1,1,14,113,0.17,7,1,113,2,2,1,1.0444,2,0.3734
1,1,14,113,0.17,8,1,113,2,2,1,0.7058,2,0.2647
1,1,14,113,0.36,9,2,113,1,1,1,0.5967,3,0.3799
1,1,14,113,0.34,10,2,113,2,2,1,0.7369,2,0.4148
1,1,14,113,0.34,11,2,113,1,2,0,0.9573,2,0.5635
1,1,14,113,0.36,12,2,113,1,2,0,0.9753,2,0.4273
1,1,14,113,0.15,13,1,113,1,1,1,0.7824,3,0.3983
1,1,14,113,0.38,14,2,113,1,2,0,1.1368,2,0.3792
1,1,14,113,0.4,15,2,113,1,1,1,0.5424,2,0.4277
1,1,14,113,0.15,16,1,113,1,1,1,0.5374,3,0.4886
1,1,14,113,0.4,17,2,113,2,2,1,0.5469,3,0.3999
1,1,14,113,0.38,18,2,113,1,1,1,1.2148,2,0.2645
1,1,14,113,0.38,19,2,113,2,2,1,0.6971,2,0.3662
1,1,14,113,0.36,20,2,113,1,2,0,0.9225,3,0.3679
1,1,14,113,0.13,21,1,113,1,1,1,0.7309,2,0.392
1,1,14,113,0.38,22,2,113,1,1,1,0.5146,3,0.5131
1,1,14,113,0.38,23,2,113,1,2,0,1.2276,2,0.3417
1,1,14,113,0.4,24,2,113,1,1,1,0.5207,3,0.499
1,1,14,113,0.4,25,2,113,1,1,1,0.8941,2,0.3572
1,1,14,113,0.13,26,1,113,2,2,1,0.4586,3,0.5688
1,1,14,113,0.38,27,2,113,2,1,0,0.9432,2,0.2277
1,1,14,113,0.11,28,1,113,2,2,1,0.8161,2,0.4785
1,1,14,113,0.4,29,2,113,2,2,1,0.5415,3,0.3555
1,1,14,113,0.4,30,2,113,1,1,1,0.6151,2,0.512
1,1,14,113,0.38,31,2,113,1,2,0,0.8645,3,0.3939
1,1,14,113,0.4,32,2,113,2,2,1,0.5054,4,0.3425
1,1,14,113,0.11,33,1,113,2,2,1,0.97,6,0
1,1,14,113,0.4,34,2,113,2,2,1,0.8573,2,0.3943
1,1,14,113,0.38,35,2,113,2,2,1,0.6447,3,0.3598
1,1,14,113,0.09,36,1,113,1,1,1,1.0539,2,0.3858
1,1,14,113,0.38,37,2,113,2,2,1,0.6052,3,0.3254
1,1,14,113,0.36,38,2,113,2,2,1,0.5746,3,0.2324
1,1,14,113,0.36,39,2,113,2,2,1,0.5587,3,0.2684
1,1,14,113,0.34,40,2,113,2,2,1,0.8852,3,0.245
1,1,14,113,0.09,41,1,113,1,1,1,1.0332,2,0.2205
1,1,14,113,0.34,42,2,113,1,1,1,0.6133,3,0.2525
1,1,14,113,0.07,43,1,113,1,2,0,0.75,2,0.4017
1,1,14,113,0.09,44,1,113,1,1,1,0.6084,3,0.2176
1,1,14,113,0.32,45,2,113,2,2,1,0.4924,2,0.3412
1,1,14,113,0.32,46,2,113,2,1,0,0.8649,2,0.3336
1,1,14,113,0.09,47,1,113,1,1,1,0.6911,3,0.3883
1,1,14,113,0.07,48,1,113,2,1,0,0.8949,2,0.1973
1,1,14,113,0.09,49,1,113,1,2,0,0.6816,3,0.1631
1,1,14,113,0.34,50,2,113,1,1,1,0.4786,3,0.2205
1,1,14,113,0.11,51,1,113,2,1,0,0.6165,3,0.2966
1,1,14,113,0.13,52,1,113,1,1,1,0.4309,3,0.2794
1,1,14,113,0.34,53,2,113,2,2,1,0.4277,4,0.317
1,1,14,113,0.32,54,2,113,1,1,1,0.9746,1,0.3893
1,1,14,113,0.32,55,2,113,2,2,1,0.6881,3,0.3045
1,1,14,113,0.3,56,2,113,1,1,1,0.6455,2,0.4112
1,1,14,113,0.13,57,1,113,2,2,1,0.8454,3,0.2821
1,1,14,113,0.11,58,1,113,1,1,1,0.7427,2,0.6233
1,1,14,113,0.11,59,1,113,1,2,0,0.6699,3,0.2402
1,1,14,113,0.3,60,2,113,1,1,1,0.8257,1,0.7463
1,1,14,113,0.28,61,2,113,1,1,1,1.0051,2,0.2395
1,1,14,113,0.28,62,2,113,2,2,1,0.7043,2,0.3438
1,1,14,113,0.13,63,1,113,1,2,0,0.9311,2,0.2878
1,1,14,113,0.15,64,1,113,1,1,1,0.9132,2,0.2367
1,1,14,113,0.28,65,2,113,2,2,1,0.9737,2,0.2401
1,1,14,113,0.28,66,2,113,2,1,0,0.622,3,0.4655
1,1,14,113,0.28,67,2,113,1,1,1,1.3714,2,0.2784
1,1,14,113,0.28,68,2,113,2,2,1,0.7589,3,0.3431
1,1,14,113,0.28,69,2,113,1,2,0,0.8987,2,0.5033
1,1,14,113,0.28,70,2,113,1,1,1,0.9575,3,0.3626
1,1,14,113,0.15,71,1,113,1,2,0,0.6805,3,0.2541
1,1,14,113,0.28,72,2,113,2,2,1,1.3083,2,0.1985
1,1,14,113,0.28,73,2,113,2,2,1,1.0257,2,0.3663
1,1,14,113,0.17,74,1,113,1,1,1,0.7911,3,0.3421
1,1,14,113,0.17,75,1,113,1,2,0,0.7751,3,0.3413
1,1,14,113,0.28,76,2,113,2,2,1,0.523,3,0.3342
1,1,14,113,0.19,77,1,113,1,2,0,0.5928,3,0.2671
1,1,14,113,0.21,78,1,113,2,2,1,0.6415,3,0.2457
1,1,14,113,0.21,79,1,113,1,2,0,0.7653,3,0.3647
1,1,14,113,0.23,80,1,113,2,2,1,0.5133,3,0.3424
1,1,14,113,0.23,81,1,113,2,2,1,0.4096,3,0.2726
1,1,14,113,0.21,82,1,113,1,2,0,0.7334,3,0.3254
1,1,14,113,0.23,83,1,113,2,1,0,0.6695,3,0.3292
1,1,14,113,0.25,84,1,113,2,2,1,0.6063,3,0.2481
1,1,14,113,0.28,85,2,113,1,2,0,0.6626,3,0.2002
1,1,14,113,0.28,86,2,113,1,1,1,0.564,3,0.3036
1,1,14,113,0.25,87,1,113,1,2,0,0.9449,2,0.3822
1,1,14,113,0.27,88,1,113,1,2,0,0.6128,2,0.2474
1,1,14,113,0.28,89,2,113,2,2,1,0.6479,3,0.2464
1,1,14,113,0.28,90,2,113,2,2,1,0.6619,2,0.4242
1,1,14,113,0.29,91,1,113,1,1,1,0.9076,2,0.3059
1,1,14,113,0.28,92,2,113,2,2,1,0.4857,3,0.4205
1,1,14,113,0.29,93,1,113,2,2,1,1.0892,3,0.2114
1,1,14,113,0.27,94,1,113,2,1,0,0.9877,2,0.3951
1,1,14,113,0.28,95,2,113,2,1,0,1.2349,2,0.3864
1,1,14,113,0.28,96,2,113,2,2,1,0.4846,3,0.347
1,1,14,113,0.27,97,1,113,1,1,1,0.7879,3,0.5408
1,1,14,113,0.28,98,2,113,1,2,0,1.2269,2,0.3854
1,1,14,113,0.27,99,1,113,2,1,0,1.0929,3,0.6071
1,1,14,113,0.27,100,1,113,2,1,0,1.1697,3,0.371
1,1,14,113,0.28,101,2,113,2,2,1,1.3055,3,0.3053
1,1,14,113,0.27,102,1,113,2,2,1,0.8621,3,0.5413
1,1,14,113,0.27,103,1,113,2,1,0,0.9741,2,0.397
1,1,14,113,0.27,104,1,113,2,2,1,0.8803,2,0.4032
1,1,14,113,0.28,105,2,113,1,1,1,0.9684,3,0.3161
1,1,14,113,0.27,106,1,113,2,1,0,0.9004,3,0.3387
1,1,14,113,0.27,107,1,113,1,1,1,0.7931,3,0.4185
1,1,14,113,0.27,108,1,113,1,2,0,0.8834,2,0.4743
1,1,14,113,0.28,109,2,113,1,2,0,0.8423,2,0.3666
1,1,14,113,0.28,110,2,113,1,1,1,0.7374,3,0.2692
1,1,14,113,0.27,111,1,113,1,1,1,1.1111,1,0.53
1,1,14,113,0.27,112,1,113,1,2,0,0.4742,3,0.3687
1,1,14,113,0.28,113,2,113,1,1,1,0.7628,3,0.4286
1,1,14,113,0.28,114,2,113,1,1,1,1.1696,2,0.4088
1,1,14,113,0.27,115,1,113,1,2,0,0.7206,2,0.8701
1,1,14,113,0.28,116,2,113,1,1,1,1.001,2,0.2673
1,1,14,113,0.27,117,1,113,2,2,1,0.9564,3,0.5982
1,1,14,113,0.27,118,1,113,1,1,1,0.9455,3,0.4883
1,1,14,113,0.27,119,1,113,1,1,1,0.6793,3,0.2286
1,1,14,113,0.27,120,1,113,1,2,0,1.3522,2,0.4832
1,1,14,113,0.27,121,1,113,1,2,0,0.9376,2,0.4138
1,1,14,113,0.27,122,1,113,1,1,1,0.7223,3,0.2632
1,1,14,113,0.28,123,2,113,1,1,1,1.0434,2,0.4562
1,1,14,113,0.27,124,1,113,1,1,1,1.3914,2,0.2874
1,1,14,113,0.27,125,1,113,2,1,0,0.9407,2,0.4477
1,1,14,113,0.28,126,2,113,2,1,0,1.2773,2,0.5622
1,1,14,113,0.27,127,1,113,1,1,1,1.4652,2,0.4045
1,1,14,113,0.28,128,2,113,2,2,1,1.0458,2,0.5434
1,1,14,113,0.27,129,1,113,1,2,0,1.0318,3,0.2746
1,1,14,113,0.27,130,1,113,2,1,0,0.9094,3,0.4456
1,1,14,113,0.27,131,1,113,1,2,0,1.0711,1,0.5261
1,1,14,113,0.28,132,2,113,2,1,0,1.3984,3,0.2694
1,1,14,113,0.28,133,2,113,2,2,1,0.9359,3,0.3013
1,1,14,113,0.27,134,1,113,2,1,0,0.9935,1,0.4634
1,1,14,113,0.27,135,1,113,2,2,1,1.0328,2,0.4235
1,1,14,113,0.27,136,1,113,2,2,1,1.2972,1,0.3578
1,1,14,113,0.28,137,2,113,2,2,1,1.3928,2,0.4536
1,1,14,113,0.28,138,2,113,1,2,0,1.0738,2,0.4445
1,1,14,113,0.28,139,2,113,2,2,1,1.0174,2,0.6846
1,1,14,113,0.28,140,2,113,1,1,1,1.0153,2,0.4366
1,1,14,113,0.27,141,1,113,2,2,1,0.9556,3,0.4341
1,1,14,113,0.28,142,2,113,1,1,1,1.0901,1,0.5186
1,1,14,113,0.27,143,1,113,2,2,1,1.0387,2,0.4322
1,1,14,113,0.27,144,1,113,1,1,1,0.9267,2,0.7072
1,1,14,113,0.27,145,1,113,1,1,1,1.049,2,0.5235
1,1,14,113,0.28,146,2,113,1,2,0,0.8664,3,0.4581
1,1,14,113,0.27,147,1,113,1,1,1,0.7162,3,0.3813
1,1,14,113,0.28,148,2,113,2,2,1,0.7297,3,0.3812
1,1,14,113,0.27,149,1,113,1,1,1,1.0292,2,0.7675
1,1,14,113,0.27,150,1,113,1,1,1,1.4276,2,0.5272
1,1,14,113,0.27,151,1,113,2,2,1,0.8614,3,0.5063
1,1,14,113,0.27,152,1,113,1,1,1,1.0326,2,0.3591
1,1,14,113,0.28,153,2,113,1,1,1,1.1568,2,0.3806
1,1,14,113,0.27,154,1,113,2,2,1,0.8139,3,0.3652
1,1,14,113,0.27,155,1,113,2,1,0,0.9625,3,0.5689
1,1,14,113,0.27,156,1,113,1,1,1,1.2613,3,0.4996
1,1,14,113,0.27,157,1,113,2,2,1,0.9908,3,0.4274
1,1,14,113,0.28,158,2,113,2,2,1,0.8512,3,0.361
1,1,14,113,0.27,159,1,113,2,2,1,0.6015,3,0.4265
1,1,14,113,0.27,160,1,113,1,2,0,0.8585,3,0.3256
1,1,14,113,0.27,161,1,113,2,1,0,1.0524,2,0.4058
1,1,14,113,0.27,162,1,113,2,1,0,0.9442,3,0.3404
1,1,14,113,0.28,163,2,113,1,1,1,0.7141,3,0.3956
1,1,14,113,0.27,164,1,113,2,2,1,0.7098,3,0.2489
1,1,14,113,0.28,165,2,113,2,2,1,0.9818,1,0.779
1,1,14,113,0.28,166,2,113,2,1,0,0.9861,2,0.7726
1,1,14,113,0.27,167,1,113,2,2,1,1.0342,3,0.2717
1,1,14,113,0.28,168,2,113,1,1,1,0.7497,3,0.4921
1,1,14,113,0.28,169,2,113,2,1,0,0.9732,3,0.2634
1,1,14,113,0.28,170,2,113,2,2,1,0.9353,3,0.2523
1,1,14,113,0.27,171,1,113,2,1,0,1.2344,2,0.2748
1,1,14,113,0.28,172,2,113,1,2,0,1.2139,3,0.1744
1,1,14,113,0.28,173,2,113,2,1,0,1.2001,3,0.1822
1,1,14,113,0.28,174,2,113,2,2,1,0.8037,3,0.5185
1,1,14,113,0.27,175,1,113,2,1,0,0.9164,3,0.2495
1,1,14,113,0.28,176,2,113,1,1,1,0.8965,2,0.2624
1,1,14,113,0.27,177,1,113,1,1,1,1.064,2,0.1874
1,1,14,113,0.27,178,1,113,1,2,0,0.8219,2,0.372
1,1,14,113,0.28,179,2,113,1,2,0,0.9378,1,0.7451
1,1,14,113,0.27,180,1,113,1,1,1,0.6158,3,0.192
1,1,14,113,0.27,181,1,113,1,1,1,1.0817,2,0.2194
1,1,14,113,0.28,182,2,113,2,2,1,0.833,3,0.2234
1,1,14,113,0.27,183,1,113,1,2,0,0.9698,2,0.2534
1,1,14,113,0.27,184,1,113,2,2,1,1.1138,3,0.1984
1,1,14,113,0.27,185,1,113,1,2,0,1.1227,3,0.3554
1,1,14,113,0.27,186,1,113,2,2,1,0.7262,3,0.3034
1,1,14,113,0.28,187,2,113,1,2,0,0.823,3,0.3098
1,1,14,113,0.28,188,2,113,1,2,0,0.7737,2,0.4073
1,1,14,113,0.28,189,2,113,2,1,0,0.98,2,0.2975
1,1,14,113,0.27,190,1,113,2,1,0,1.2984,2,0.1927
1,1,14,113,0.27,191,1,113,2,2,1,0.8356,3,0.2437
1,1,14,113,0.28,192,2,113,1,1,1,0.9198,3,0.2604
1,1,14,113,0.27,193,1,113,2,2,1,0.7953,3,0.2215
1,1,14,113,0.28,194,2,113,2,1,0,1.4901,2,0.2418
1,1,14,113,0.27,195,1,113,2,2,1,0.6254,3,0.3226
1,1,14,113,0.28,196,2,113,1,1,1,1.0557,2,0.3198
1,1,14,113,0.27,197,1,113,2,2,1,0.9647,2,0.3312
1,1,14,113,0.27,198,1,113,2,2,1,0.8998,3,0.1694
1,1,14,113,0.28,199,2,113,1,1,1,0.4764,3,0.2706
1,1,14,113,0.27,200,1,113,1,1,1,0.8377,3,0.1899
1,1,14,113,0.28,201,2,113,1,1,1,0.9273,2,0.3003
1,1,14,113,0.28,202,2,113,2,2,1,0.6639,3,0.1684
1,1,14,113,0.28,203,2,113,2,1,0,0.8095,3,0.2526
1,1,14,113,0.27,204,1,113,1,1,1,0.7383,3,0.1329
1,1,14,113,0.28,205,2,113,1,1,1,0.8402,3,0.1842
1,1,14,113,0.28,206,2,113,2,1,0,0.7367,3,0.1782
